Uptime,Year,Month,Day,Hour,Minute,Second,Servo Position (deg),Scale Value (grams),MMA8451 Raw Count X,MMA8451 Raw Count Y,MMA8451 Raw Count Z,MMA8451 Acceleration X (m/s^2),MMA8451 Acceleration Y (m/s^2),MMA8451 Acceleration Z (m/s^2),MMA8451 Orientation,SABOT Switch 1,SABOT Switch 2,SABOT Switch 3,Phototransistor,NTC Thermistor,MS5607 Altitude (meters),MS5607 Temperature (Deg C),MS5607 Pressure (mBar),SHTC3 Temperature (Deg C),SHTC3 Humidity (%RH),LIS3MDL Raw Count X,LIS3MDL Raw Count Y,LIS3MDL Raw Count Z,LIS3MDL Field X (uTesla),LIS3MDL Field Y (uTesla),LIS3MDL Field Z (uTesla),LSM6DSL Acceleration X (g),LSM6DSL Acceleration Y (g),LSM6DSL Acceleration Z (g),LSM6DSL Gyro X (dps),LSM6DSL Gyro Y (dps),LSM6DSL Gyro Z (dps),USB Detect,Logical Battery Voltage (V),Logical Battery Shunt (mV),Logical Battery Current (mA),Servo Battery Voltage (V),Servo Battery Shunt (mV),Servo Battery Current (mA),COTS Battery Voltage (V),COTS Battery Shunt (mV),COTS Battery Current (mA),Log Count,Log Time (ms)
40574,2000,1,3,18,12,3,83,106.53,122,9,-1043,1.19,0.08,-10.05,1,1,1,0,64,422,1461.21,31.36,862.01,31.16,19.38,28015,12730,-12129,-422.32,0.48,0,0.03,0.11,-0.95,-2.99,1.34,-0.43,1,4.12,7.22,71.8,3.94,7.17,144.2,4.18,0.67,6.6,3,209
50608,2000,1,3,18,12,13,83,106.54,121,15,-1047,1.19,0.11,-10.06,1,1,1,0,56,418,1462.57,31.82,862.09,31.22,19.33,-32145,12629,8318,-422.32,0.48,0,0.03,0.12,-0.94,-3.11,1.22,0,1,4.11,7.16,72,3.92,7.17,209.2,4.18,0.59,6,6,211
60618,2000,1,3,18,12,23,83,105.71,134,14,-1049,1.28,0.11,-10.07,1,1,1,0,53,415,1462.95,31.95,862.11,31.27,18.83,-27025,12498,20534,-422.32,0.48,0,0.03,0.12,-0.94,-2.99,1.34,-0.43,1,4.11,7.16,72.1,3.86,7.19,373.4,4.18,0.61,6,9,213
70631,2000,1,3,18,12,33,83,108.63,113,-19,-1049,1.08,-0.24,-9.97,7,0,1,0,53,412,1464.15,32.1,862.07,31.31,18.43,-23185,12100,25394,-422.32,,0,0.02,0.14,-0.94,-3.05,1.34,-4.09,1,4.12,7.17,71.4,3.85,7.17,299.2,4.19,0.71,6.9,12,168
80660,2000,1,3,18,12,43,83,114.58,150,10,-1045,1.45,0.13,-10.02,7,0,1,0,56,410,1465.16,32.2,862.02,31.36,17.89,-18833,11604,6608,-422.32,0.48,0,0.02,0.11,-0.95,-2.99,1.22,-0.55,1,4.12,7.13,71.7,3.89,7.14,285.6,4.18,0.61,6.1,15,166
90671,2000,1,3,18,12,53,83,95.38,134,0,-1054,1.22,0.02,-10.05,7,0,1,0,0,408,1465.38,32.25,862.02,31.43,17.52,-11665,11307,-15393,-422.32,0.48,0,0.02,0.12,-0.94,-2.99,1.22,-0.73,1,4.11,7.11,72,3.84,7.19,215.1,4.18,0.63,6.1,18,209
100691,2000,1,3,18,13,3,83,104.11,143,7,-1048,1.35,0.07,-10.03,7,0,1,0,39,406,1464.98,32.38,862.11,31.49,17.51,-6545,11306,21720,-422.32,0.48,0,0.03,0.12,-0.94,-2.99,1.28,-0.85,1,4.11,7.13,71.8,3.9,7.19,309.5,4.18,0.64,6.4,21,168
1088729192,2000,1,3,18,13,13,83,93.29,128,7,-1051,1.24,0.06,-10.04,7,0,1,0,63,404,1466.01,32.41,862.03,31.55,17.36,-145,11489,17011,-422.32,0.48,0,0.02,0.12,-0.94,-3.05,1.28,-0.12,1,4.11,7.15,71.8,3.86,7.15,320.9,4.18,0.56,5.7,24,209
120717,2000,1,3,18,13,23,83,104.07,128,5,-1045,1.24,0.09,-10.02,7,0,1,0,60,403,1466.65,32.48,862,31.61,17.13,5488,11020,16092,-422.32,0.48,0,0.02,0.12,-0.94,-2.99,1.28,-0.31,1,4.12,,71.3,3.92,7.15,249.3,4.18,0.64,6.6,27,209
130721,2000,1,3,18,13,33,83,102.79,131,12,-1045,1.27,0.08,-10.04,7,0,1,0,39,401,1466.12,32.56,862.09,31.66,17.43,9584,11465,9377,-422.32,0.48,0,0.02,0.12,-0.94,-2.99,1.28,0.06,1,4.11,7.21,71.7,3.9,7.16,272.1,4.18,0.64,6.1,30,211
140746,2000,1,3,18,13,43,83,103.49,137,10,-1049,1.38,0.11,-10.03,7,0,1,0,61,400,1467.53,32.66,862,31.72,17.12,15728,11059,-11049,-422.32,0.48,0,0.02,0.11,-0.94,-2.99,1.22,0,1,4.11,7.11,72,3.82,7.2,198,4.18,0.67,6.9,33,166
150763,2000,1,3,18,13,53,83,103.78,126,-5,-1049,1.19,0.02,-10.01,7,0,1,0,63,399,1467.66,32.72,862.02,31.74,17.05,18032,11041,7590,-422.32,0.48,0,0.02,0.12,-0.94,-3.05,1.28,-1.16,1,4.11,7.15,71.6,3.86,7.16,267.6,4.18,0.62,6.2,36,166
160792,2000,1,3,18,14,3,83,101.02,132,13,-1046,1.31,0.05,-10.02,7,0,1,0,36,398,1466.49,32.74,862.14,31.8,17,23152,11039,-19063,-422.32,0.48,0,0.03,0.13,-0.94,-2.99,1.16,-0.98,1,4.11,7.15,71.9,3.79,7.16,216.6,4.18,0.61,6.2,39,209
170807,2000,1,3,18,14,13,83,104.59,131,5,-1048,1.25,0.05,-10.01,7,0,1,0,59,397,1467.41,32.81,862.08,31.81,16.95,24688,11009,23142,-422.32,0.48,0,0.02,0.12,-0.94,-2.99,1.28,-0.24,1,4.11,7.19,71.4,3.95,7.14,217.9,4.18,0.66,6.7,42,209
180822,2000,1,3,18,14,23,83,95.4,124,8,-1047,1.15,0.11,-10.04,7,0,1,0,60,396,1468.26,32.87,862.03,31.84,16.99,27248,11226,24450,-422.32,0.48,0,0.03,0.12,-0.94,-3.05,1.28,-0.18,1,4.11,7.12,71.9,3.89,7.18,263,4.18,0.63,6.1,45,206
190832,2000,1,3,18,14,33,83,104.07,129,4,-1052,1.24,0.09,-10,7,0,1,0,38,395,1467.48,32.97,862.15,31.92,16.88,-31120,11110,5431,-422.32,0.48,0,0.02,0.12,-0.94,-2.99,1.34,-0.06,1,4.11,7.21,72,3.84,7.16,251.4,4.18,0.67,6.6,48,164
200837,2000,1,3,18,14,43,83,92.29,119,7,-1043,1.22,0.11,-10.05,7,0,1,0,59,394,1468.26,32.99,862.08,31.96,16.77,-26512,10810,-2572,-422.32,0.48,0,0.02,0.12,-0.94,-3.05,1.16,-0.12,1,4.11,7.15,71.6,3.92,7.14,276.5,4.18,0.62,6.2,51,209
210851,2000,1,3,18,14,53,83,105.25,125,9,-1046,1.19,0.14,-10.03,7,0,1,0,63,393,1468.88,33.08,862.06,32.01,16.91,-21648,11180,1868,-422.32,0.48,,0.03,0.13,-0.94,-3.05,1.28,-0.06,1,4.12,7.12,71.7,3.84,7.16,211.2,4.18,0.62,6,54,166
220860,2000,1,3,18,15,3,83,100.45,133,9,-1046,1.28,0.06,-10.01,7,0,1,0,40,392,1467.98,33.1,862.16,32.1,17.22,-13456,11287,3094,-422.32,0.48,0,0.02,0.13,-0.94,-2.99,1.34,-0.31,1,4.11,7.2,71.6,3.74,7.16,282.4,4.18,0.6,6.6,57,213
230879,2000,1,3,18,15,13,83,101.7,131,10,-1049,1.26,0.1,-10.06,7,0,1,0,58,392,1469.33,33.2,862.08,32.1,17.32,-13200,11392,19546,-422.32,0.48,0,0.03,0.12,-0.94,-2.93,1.22,-0.67,1,4.11,7.17,71.2,3.83,7.17,220.7,4.18,0.64,6.3,60,166
240912,2000,1,3,18,15,23,83,102.18,119,14,-1049,1.15,0.11,-10.05,7,0,1,0,60,391,1470.35,33.25,862,32.13,17.28,-10896,11339,24637,-422.32,0.48,0,0.03,0.13,-0.94,-3.05,1.34,1.28,1,4.11,7.18,71.4,3.77,7.13,251.9,4.18,0.64,6.1,63,166
250920,2000,1,2,18,15,33,83,102.23,129,5,-1043,1.2,0.03,-10.05,7,0,1,0,39,390,1469.03,33.26,862.13,32.19,17.37,-4496,11364,27772,-422.32,0.48,0,0.02,0.11,-0.94,-3.11,1.16,-3.6,1,4.11,7.13,72,3.82,7.16,155.4,4.18,0.62,6.4,66,209
260939,2000,1,3,18,15,43,83,104.04,131,13,-1048,1.31,0.1,-10.03,7,0,1,0,62,390,1470.58,33.31,862.01,32.22,17.56,-1680,11440,-24843,-422.32,0.48,0,0.02,0.13,-0.94,-2.99,1.34,-0.61,1,4.11,7.15,,3.82,7.18,242.7,4.18,0.67,6.9,69,207
270954,2000,1,3,18,15,53,83,102.87,126,15,-1047,1.2,0.12,-9.99,7,0,1,0,63,389,1471.08,33.37,861.99,32.29,17.61,4721,11631,-10727,-422.32,0.48,0,0.03,0.12,-0.94,-2.93,1.34,-0.67,1,4.11,7.13,71.7,3.92,7.18,228.6,4.18,0.59,6.3,72,209
280961,2000,1,3,18,16,3,83,108.53,131,42,-1042,1.28,0.4,-10.05,7,0,1,0,39,388,1471.73,33.42,861.95,32.32,17.68,7537,11585,29507,-422.32,0.48,0,0.03,0.14,-0.94,-2.93,0.85,1.77,1,4.11,7.15,71.7,3.82,7.18,214.7,4.18,0.75,7.3,75,210
290992,2000,1,3,18,16,13,83,100.5,132,16,-1046,1.28,0.16,-9.96,5,0,1,0,63,387,1473.99,33.46,861.76,32.34,17.41,9841,11374,-19822,-422.32,0.48,0,0.02,0.11,-0.95,-3.05,1.16,1.83,1,4.11,7.17,71.5,3.88,7.14,194.5,4.18,0.59,6.1,78,209
301010,2000,1,3,18,16,23,83,107.92,133,0,-1047,1.27,-0.03,-10.02,5,0,1,0,63,387,,33.5,861.95,32.36,17.68,11633,11652,-26296,-422.32,0.48,0,0.01,0.11,-0.94,-3.11,1.34,3.78,1,4.11,7.09,71.9,3.93,7.18,236.9,4.17,16.89,134.4,81,215
311035,2000,1,3,18,16,33,83,103.14,125,2,-1047,1.24,0.08,-10,5,0,1,0,40,386,1470.78,33.58,862.11,32.38,17.08,13169,11224,9146,-422.32,0.48,0,0.03,0.13,-0.94,-2.99,1.16,0,1,4.11,7.14,72.1,3.93,7.18,242.9,4.18,0.64,6.2,84,164
321042,2000,1,3,18,16,43,83,108.67,130,-6,-1048,1.21,-0.08,-10.07,5,0,1,0,63,386,1471.34,33.6,862.07,32.48,16.54,23153,10987,-11682,-422.32,0.48,0,0.02,0.13,-0.94,-3.11,1.28,-1.77,1,4.11,7.13,71.8,3.8,7.17,232.9,4.18,0.66,6.6,87,166
331053,2000,1,3,18,16,53,83,110.39,129,18,-1043,1.24,0.15,-10.01,5,0,1,0,63,386,1472.16,33.64,862.01,32.5,16.81,24689,11253,14860,-422.32,0.48,0,0.03,0.13,-0.94,-3.05,1.1,0.37,1,4.11,7.16,71.7,3.92,7.16,217.9,4.18,0.62,6.3,90,163
341053,2000,1,3,18,17,3,83,107.51,121,14,-1045,1.19,0.11,-10.08,5,0,1,0,40,385,1470.28,33.68,862.2,32.52,17.13,27249,11054,28127,-422.32,0.48,0,0.02,0.12,-0.94,-2.93,1.04,1.04,1,4.11,7.11,72,3.84,7.17,248.7,4.18,0.71,6.9,93,164
351062,2000,1,3,18,17,13,83,104.56,124,9,-1052,1.23,0.11,-10.01,5,0,1,0,63,384,1471.77,33.68,862.06,32.55,17.23,30065,11331,28448,-422.32,0.48,0,,0.12,-0.94,-3.05,1.04,-1.1,1,4.11,7.13,71.9,3.88,7.16,256.3,4.18,0.67,7,96,213
361089,2000,1,3,18,17,23,83,97.05,126,2,-1050,1.23,0.04,-10.02,5,0,1,0,63,384,1472.32,33.73,862.03,32.6,17.32,-31375,11457,-5540,-422.32,0.48,0,0.02,0.12,-0.94,-3.05,1.4,-0.37,1,4.11,7.16,71.6,3.88,7.12,180.5,4.18,0.61,5.7,99,206
371116,2000,1,3,18,17,33,83,104.67,127,12,-1050,1.24,0.11,-10.05,5,0,1,0,40,383,1471.26,33.77,862.15,32.68,17.31,-22927,11284,21332,-422.32,0.48,0,0.02,0.12,-0.94,-2.99,1.22,-0.06,1,4.11,7.15,71.4,3.95,7.16,153.7,4.18,0.67,6.5,102,213
381118,2000,1,3,18,17,43,83,98.04,114,3,-1047,1.08,0.01,-10.07,5,0,1,0,63,383,1473.28,33.82,861.98,32.68,17.36,-22927,11284,29554,-422.32,0.48,0,0.02,0.13,-0.94,-2.99,1.4,1.34,1,4.11,7.17,71.3,3.89,7.16,179.5,4.18,0.64,6,105,207
391135,2000,1,3,18,17,48,64,110.18,131,5,-1042,1.27,0.09,-10.04,5,0,1,0,63,382,1473.69,33.9,861.98,32.74,17.3,-17551,11291,-26547,-422.32,0.48,0,0.02,0.12,-0.94,-2.99,1.34,-0.98,1,4.11,7.16,71.4,3.83,7.17,246.2,4.18,0.6,5.7,108,164
401162,2000,1,3,18,18,3,83,106.89,133,3,-1048,1.25,0.03,-10.07,5,0,1,0,63,381,1472.4,33.9,862.1,32.75,17.29,-17039,11453,29254,-422.32,0.48,0,0.02,0.12,-0.94,-3.05,1.28,0.61,1,4.11,7.2,71.4,,7.15,248.7,4.18,0.6,6.2,111,207
411181,2000,1,3,18,18,13,83,106.66,121,-1,-1052,1.1,0.04,-10.03,5,0,1,0,63,381,1473.41,33.98,862.04,32.78,17.26,-13711,11474,-6092,-422.32,0.48,0,0.02,0.12,-0.94,-3.11,1.46,-1.46,1,4.11,7.14,71.6,3.9,7.16,280.7,4.18,0.65,6.4,114,165
421191,2000,1,3,18,18,23,83,108.13,145,5,-1047,1.41,0.05,-10.03,5,0,1,0,63,380,1473.2,34.01,862.08,32.8,17.25,-11919,11387,4652,-422.32,0.48,0,0.02,0.12,-0.94,-3.05,1.22,0,1,4.11,7.16,71.8,3.91,7.14,265.8,4.18,0.61,6.3,117,164
431218,2000,1,3,18,18,33,83,105.87,131,5,-1048,1.24,0.11,-10.04,5,0,1,0,63,380,1473.24,34.05,862.09,32.81,17.1,-11151,11150,-30519,-422.32,0.48,0,0.02,0.13,-0.94,-2.99,1.16,-0.31,1,4.11,7.16,71.6,3.87,7.15,122.4,4.18,0.7,6.9,120,164
441221,2000,1,3,18,18,43,83,108.54,131,0,-1049,1.26,-0.02,-10.06,5,0,1,0,63,380,1473.65,,862.07,32.84,17.06,-8079,11151,-25934,-422.32,0.48,0,0.02,0.12,-0.94,-2.93,1.34,-1.53,1,4.11,7.2,71.7,3.93,7.15,230.3,4.18,0.61,6.2,123,161
451246,2000,1,3,18,18,53,83,106.7,128,15,-1046,1.18,0.14,-10.03,5,0,1,0,63,380,1473.39,34.11,862.1,32.88,16.99,-4495,11152,28291,-422.32,0.48,0,0.02,0.12,-0.94,-2.93,1.34,0.37,1,4.11,7.16,71.7,3.9,7.16,244.9,4.18,0.68,6.8,126,161
461244,2000,1,3,18,19,3,83,108.08,121,15,-1051,1.14,0.13,-10.02,5,0,1,0,63,379,1473.74,34.15,862.09,32.96,17.06,3698,11132,-13903,-422.32,0.48,0,0.02,0.12,-0.94,-3.11,1.46,-0.49,1,4.11,7.16,72,3.85,7.17,136.6,4.18,0.61,5.9,129,164
471269,2000,1,3,18,19,13,83,110.06,125,23,-1048,1.19,0.21,-9.98,5,0,1,0,63,379,1474.18,34.19,862.07,32.98,17.08,5746,11142,9146,-422.32,0.48,0,0.03,0.12,-0.94,-3.11,1.22,-0.73,1,4.11,7.17,72.1,3.86,7.16,245.2,4.18,0.65,6.8,132,162
481269,2000,1,3,18,19,23,83,108.84,124,4,-1044,1.23,0.11,-10.09,5,0,1,0,63,378,1473.91,34.18,862.09,33.03,17.12,10610,11117,-26406,-422.32,0.48,0,0.01,0.13,-0.94,-2.99,1.16,1.16,1,4.11,7.21,71.4,3.82,7.19,252.6,4.18,0.68,6.9,135,209
491270,2000,1,3,18,19,33,83,106.11,129,10,-1050,1.24,0.06,-10.03,5,0,1,0,63,377,1473.77,34.18,862.1,33.04,17.07,11634,11177,3509,-422.32,0.48,0,0.02,,-0.94,-2.99,1.28,-0.43,1,4.11,7.18,71.9,3.85,7.19,275.2,4.18,0.69,6.8,138,258
501286,2000,1,3,18,19,44,83,109,129,1,-1046,1.33,0.04,-10.07,5,0,1,0,63,376,1475.16,34.3,862.02,33.06,17.2,13426,11362,-23283,-422.32,0.48,0,0.04,0.12,-0.94,-2.93,1.77,0.49,1,4.11,7.14,72.2,3.93,7.16,186.8,4.18,0.59,5.9,141,164
511311,2000,1,3,18,19,54,83,111.44,124,12,-1055,1.26,0.13,-9.84,5,0,1,0,64,376,1475.18,34.33,860.04,33.08,17.3,14706,11310,-26800,-422.32,0.48,0,0.02,0.12,-0.94,-2.99,1.4,0.79,1,4.11,7.16,71.5,3.91,7.16,277.8,4.18,0.66,6.7,144,164
521340,2000,1,3,18,20,4,83,110.61,120,-1,-1047,1.18,-0.01,-10.05,5,0,1,0,61,376,1474.7,34.33,862.08,33.16,17.04,22898,11157,-5981,-422.32,0.48,0,0.02,0.12,-0.94,-3.11,1.34,-0.43,1,4.11,7.18,71.4,3.82,7.18,214.9,4.18,0.65,6.2,147,207
531351,2000,1,3,18,20,14,83,7.19,127,10,-1047,1.23,0.08,-10.01,5,0,1,0,63,375,1474.95,34.35,862.06,33.16,16.88,22386,11146,15160,-422.32,0.48,0,0.02,0.12,-0.94,-2.99,1.28,1.4,1,4.11,7.2,71.7,3.93,7.16,144.8,4.18,0.64,6.2,150,209
541372,2000,1,3,18,20,24,83,110.02,146,9,-1043,1.31,0.1,-10.01,5,0,1,0,64,375,1475.79,34.41,862.01,33.2,16.59,26738,10849,-24197,-422.32,0.48,0,0.02,0.12,-0.94,-2.93,1.22,-0.24,1,4.11,7.16,71.9,3.85,,186.5,4.18,0.68,6.8,153,164
551372,2000,1,3,18,20,34,83,108.13,138,12,-1053,1.3,0.07,-10.07,5,0,1,0,63,376,1475.38,34.39,862.04,33.21,16.54,27250,10755,29784,-422.32,0.48,0,0.02,0.12,-0.94,-3.05,1.1,-0.55,1,4.11,7.2,71.8,3.96,7.17,165.5,4.18,0.64,5.9,156,209
561383,2000,1,3,18,20,44,83,109.25,124,11,-1047,1.17,0.11,-10.02,5,0,1,0,64,375,1475.3,34.42,862.07,33.27,16.65,-32654,10777,-5722,-422.32,0.48,0,0.03,0.12,-0.94,-2.99,1.28,-0.79,1,4.1,7.14,71.6,3.84,7.18,150.8,4.18,0.65,6.2,159,209
571387,2000,1,3,18,20,54,83,106.26,130,5,-1047,1.24,0.06,-10,5,0,1,0,63,375,1475.1,34.46,862.1,33.27,16.72,-32398,10792,-10798,-422.32,0.48,0,0.02,0.12,-0.94,-2.87,1.16,0.37,1,4.11,7.17,72.3,3.8,7.23,250.8,4.18,0.63,6.1,162,207
581390,2000,1,3,18,21,4,83,109.71,134,5,-1046,1.3,0.03,-10.01,5,0,1,0,64,375,1475.24,34.49,,33.3,16.71,-29326,10837,7883,-422.32,0.48,0,0.02,0.13,-0.94,-2.93,1.34,-0.61,1,4.11,7.2,72.1,3.91,7.21,256.9,4.18,0.64,6.6,165,205
591423,2000,1,3,18,21,14,83,107.03,129,16,-1052,1.22,0.13,-10.02,5,0,1,0,64,374,1475.01,34.52,862.13,33.32,16.64,-27534,10910,-23393,-422.32,0.48,0,0.03,0.12,-0.94,-2.99,1.22,0.43,1,4.11,7.18,71.6,3.89,7.18,238.3,4.18,0.61,6.3,168,207
601452,2000,1,3,18,21,24,83,95.25,124,6,-1044,1.25,0.1,-10.02,5,0,1,0,64,374,1475.12,34.55,862.14,33.33,16.68,-26766,10957,-25673,-422.32,0.48,0,0.02,0.12,-0.94,-2.99,1.28,-0.43,1,4.1,7.2,71.4,3.84,7.15,205.4,4.18,0.63,5.9,171,207
611475,2000,1,3,18,21,34,83,106.21,125,11,-1041,1.26,0.1,-10.01,5,0,1,0,64,374,1475.82,34.59,862.09,33.37,16.7,-22670,10760,21190,-422.32,0.48,0,0.02,0.12,-0.94,-3.11,1.16,-0.24,1,4.1,7.16,72.1,3.92,7.17,237.55,4.18,0.69,7,174,207
621477,2000,1,3,18,21,44,83,105.43,127,9,-1049,1.21,0.07,-10.06,5,0,1,0,64,373,1475.79,34.65,862.12,33.41,16.7,-19342,10776,25543,-422.32,0.48,0,0.02,0.12,-0.94,-2.99,1.16,-0.24,1,4.1,7.21,71.8,3.83,7.13,301.8,4.18,0.65,6.9,177,164
631490,2000,1,3,18,21,54,83,105.73,126,9,-1043,1.28,0.08,-10.05,5,0,1,0,64,372,1475.64,34.64,862.13,33.41,16.52,-19342,10776,-3252,-422.32,0.48,0,0.02,0.12,,-2.99,1.28,-0.37,1,4.1,7.16,71.8,3.86,7.14,191.4,4.18,0.66,7.2,180,205
641515,2000,1,3,18,22,4,83,105.81,124,7,-1048,1.17,0.08,-9.99,5,0,1,0,64,372,1476.63,34.7,862.07,33.44,16.21,-15758,10566,-18557,-422.32,0.48,0,0.02,0.12,-0.94,-2.99,1.16,-0.06,1,4.1,7.22,72,3.88,7.16,256.1,4.18,0.68,6.8,183,164
651544,2000,1,3,18,22,14,83,107.41,135,4,-1045,1.31,0.07,-10.04,5,0,1,0,64,372,1476.27,34.72,862.11,33.47,15.96,-13454,10446,-13854,-422.32,0.48,0,0.02,0.11,-0.94,-2.99,1.28,-0.67,1,4.11,7.2,71.8,4.06,7.14,119.6,4.18,0.66,6.7,186,164
661551,2000,1,3,18,22,24,83,104.35,127,5,-1040,1.24,0.05,-10.04,5,0,1,0,64,371,1476.44,34.7,862.08,33.5,16.1,-10382,10736,-7624,-422.32,0.48,0,0.02,0.12,-0.94,-2.93,1.34,-0.61,1,4.11,7.15,72.1,3.86,7.17,202.4,4.18,0.62,6,189,204
671555,2000,1,3,18,22,34,83,97.55,122,10,-1049,1.18,0.07,-10.04,5,0,1,0,64,371,1476.69,34.73,862.07,33.54,15.98,-6030,10267,9193,-422.32,0.48,0,0.03,0.13,-0.94,-2.99,1.28,-0.61,1,4.1,7.14,71.6,3.94,7.15,295.5,4.18,0.67,7.1,192,205
681584,2000,1,3,18,22,44,83,96.21,127,6,-1047,1.21,0.11,-10.02,5,0,1,0,64,371,1476.94,34.76,862.06,33.54,16.25,-6286,10549,-30305,-422.32,0.48,0,0.02,0.12,-0.94,-2.93,1.28,-0.18,1,4.1,7.2,71.6,3.84,7.14,,4.18,0.59,6.5,195,205
691597,2000,1,3,18,22,54,83,107.38,120,5,-1047,1.15,0.01,-10.03,5,0,1,0,64,370,1477.85,34.82,862.01,33.56,16.31,-4494,10685,7620,-422.32,0.48,0,0.02,0.12,-0.94,-3.11,1.28,0.79,1,4.1,7.15,71.8,3.88,7.18,278.3,4.18,0.65,6.4,198,160
701599,2000,1,3,18,23,4,83,95.55,129,10,-1050,1.24,0.14,-10.06,5,0,1,0,64,371,1477.16,34.81,862.06,33.59,16.23,-1934,10584,-14958,-422.32,0.48,0,0.02,0.11,-0.94,-3.11,1.16,-0.18,1,4.1,7.12,72.2,3.89,7.18,177.1,4.18,0.6,6.1,201,205
711628,2000,1,3,18,23,14,83,106.09,124,7,-1049,1.16,0.07,-10.07,5,0,1,0,64,371,1477.53,34.86,862.05,33.62,16.06,1139,10579,-15842,-422.32,0.48,0,0.02,0.12,-0.94,-3.11,1.28,0.12,1,4.1,7.22,71.6,3.9,7.16,229.6,4.18,0.67,6.5,204,162
721629,2000,1,3,18,23,24,83,104.11,128,7,-1041,1.24,0.09,-9.98,5,0,1,0,64,370,1477.39,34.84,862.06,,16.2,883,10692,-29573,-422.32,0.48,0,0.02,0.12,-0.94,-3.05,1.28,-0.55,1,4.1,7.16,71.6,3.8,7.19,258.4,4.18,0.61,6.3,207,204
731633,2000,1,3,18,23,34,83,94.2,127,8,-1048,1.21,0.11,-10.06,5,0,1,0,64,370,1477.16,34.87,862.09,33.7,16.02,8819,10611,5641,-422.32,0.48,0,0.02,0.12,-0.94,-2.99,1.28,-0.24,1,4.1,7.18,71.5,3.9,7.16,144.9,4.18,0.64,6,210,205
741656,2000,1,3,18,23,44,83,105.17,131,7,-1052,1.24,0.05,-10.04,5,0,1,0,64,370,1477.28,34.89,862.09,33.71,15.91,9587,10468,-26179,-422.32,0.48,0,0.02,0.12,-0.94,-2.99,1.22,-0.12,1,4.1,7.16,72.2,3.86,7.16,254.8,4.18,0.67,6.8,213,205
751661,2000,1,3,18,23,54,83,103.73,122,12,-1048,1.2,0.11,-10.07,5,0,1,0,64,369,1477.54,34.95,862.09,33.72,15.73,10611,10393,-17077,-422.32,0.48,0,0.02,0.12,-0.94,-2.99,1.28,-0.49,1,4.1,7.21,71.4,3.93,7.19,224.2,4.17,0.69,6.6,216,161
761692,2000,1,3,18,24,4,83,105.42,138,6,-1049,1.33,0.03,-10,5,0,1,0,63,369,1477.72,34.97,862.08,33.75,15.65,13427,10390,6161,-422.32,0.48,0,0.02,0.12,-0.94,-2.93,1.28,-1.16,1,4.11,7.18,71.6,3.84,7.17,127.9,4.18,0.6,6.1,219,161
771723,2000,1,3,18,24,14,83,106.63,128,15,-1043,1.23,0.15,-9.96,5,0,1,0,64,369,1478.05,34.98,862.06,33.78,15.64,16243,10364,5900,-422.32,0.48,0,0.03,0.12,-0.94,,1.28,-1.59,1,4.1,7.18,71.9,3.88,7.17,186,4.18,0.6,6.1,222,162
781740,2000,1,3,18,24,24,83,95.54,122,9,-1051,1.19,0.06,-10.03,5,0,1,0,64,368,1477.92,34.95,862.06,33.78,15.68,16755,10395,18982,-422.32,0.48,0,0.02,0.12,-0.94,-3.05,1.4,-2.08,1,4.1,7.14,71.8,3.94,7.17,266.9,4.18,0.66,6.2,225,204
791744,2000,1,3,18,24,34,83,104.79,126,6,-1045,1.2,0.07,-10.01,5,0,1,0,64,369,1477.73,35,862.1,33.81,15.36,19315,10048,30805,-422.32,0.48,0,0.02,0.12,-0.94,-3.05,1.16,-0.43,1,4.1,7.2,71.7,3.89,7.18,215.9,4.18,0.65,6.3,228,162
801767,2000,1,3,18,24,44,83,109.08,133,10,-1049,1.3,0.06,-10.01,5,0,1,0,64,369,1477.28,34.93,862.11,33.81,15.29,19571,10199,-727,-422.32,0.48,0,0.02,0.12,-0.94,-2.99,1.34,-1.46,1,4.1,7.17,71.7,3.86,7.17,193.4,4.18,0.62,6.1,231,258
811792,2000,1,3,18,24,54,83,94,124,8,-1045,1.19,0.07,-10.05,5,0,1,0,64,368,1478.11,34.99,862.06,33.83,15.29,21107,10123,-24789,-422.32,0.48,0,0.02,0.12,-0.94,-2.99,1.28,-0.37,1,4.11,7.15,71.7,3.81,7.18,250.6,4.18,0.65,6.4,234,205
821798,2000,1,3,18,25,4,83,104.62,124,8,-1046,1.19,0.12,-10.04,5,0,1,0,64,368,1478.48,35.05,862.05,33.82,15.31,20083,10165,21554,-422.32,0.48,0,0.02,0.12,-0.94,-2.99,1.22,-0.18,1,4.1,7.13,71.7,3.89,7.16,149.8,,0.64,6.7,237,162
831830,2000,1,3,18,25,14,83,104.81,117,7,-1044,1.2,0.09,-10.03,5,0,1,0,64,367,1478.47,35.08,862.06,33.85,15.58,23667,10132,25059,-422.32,0.48,0,0.02,0.13,-0.94,-3.05,1.28,-0.06,1,4.1,7.2,72.1,3.85,7.17,332.1,4.18,0.63,6.1,240,161
841863,2000,1,3,18,25,24,83,106.7,148,11,-1048,1.38,0.05,-9.99,5,0,1,0,64,367,1478.83,35.08,862.03,33.85,15.39,23667,10132,-16279,-422.32,0.48,0,0.02,0.12,-0.94,-2.93,1.28,-0.12,1,4.1,7.14,71.9,3.8,7.2,219.5,4.18,0.64,6.5,243,161
851894,2000,1,3,18,25,34,83,106.05,138,10,-1042,1.31,0.07,-10.01,5,0,1,0,64,367,1478.52,35.1,862.07,33.88,15.41,26483,10171,-25481,-422.32,0.48,0,0.02,0.11,-0.94,-2.93,1.28,-0.92,1,4.1,7.14,71.9,3.85,7.17,183.4,4.18,0.66,6.7,246,164
861919,2000,1,3,18,25,44,83,106.04,131,8,-1041,1.25,0.13,-10.04,5,0,1,0,64,367,1478.49,35.11,862.07,33.88,1.28,25715,9960,-6158,-422.32,0.48,0,0.02,0.13,-0.94,-2.99,1.22,-0.06,1,4.1,7.16,71.8,4.08,7.17,11.4,4.18,0.59,6,249,162
871942,2000,1,3,18,25,54,83,106.36,131,3,-1046,1.21,0.09,-10.02,5,0,1,0,64,367,1479.11,35.12,862.02,33.93,15.16,31091,9959,976,-422.32,0.48,0,0.02,0.13,-0.94,-3.11,1.16,-0.12,1,4.1,7.13,72.2,3.89,7.18,200.3,4.18,0.61,5.7,252,161
881965,2000,1,3,18,26,4,83,106.44,127,5,-1042,,0.07,-10.03,5,0,1,0,64,367,1478.44,35.13,862.09,33.94,15.4,31859,10002,14961,-422.32,0.48,0,0.02,0.14,-0.94,-2.99,1.16,-0.12,1,4.1,7.15,71.6,3.85,7.18,233.2,4.18,0.65,6.5,255,161
891996,2000,1,3,18,26,14,83,106.53,124,11,-1050,1.21,0.09,-9.97,5,0,1,0,64,367,1479,35.07,862.01,33.96,15.24,-31629,10025,25607,-422.32,0.48,0,0.02,0.11,-0.94,-3.17,1.1,-0.61,1,4.1,7.13,71.8,3.82,7.2,218.1,4.18,0.59,5.9,258,252
902006,2000,1,3,18,26,24,83,92.97,134,3,-1050,1.25,0.03,-10.03,5,0,1,0,64,367,1478.58,35.12,862.07,34,15.48,-27533,10090,-1371,-422.32,0.48,0,0.02,0.12,-0.94,-3.05,1.28,-0.43,1,4.1,7.2,72,3.94,7.17,285.5,4.18,0.58,5.8,261,205
912013,2000,1,3,18,26,34,83,107.85,117,8,-1048,1.13,0.04,-10.07,5,0,1,0,64,367,1479.03,35.17,862.05,34.05,15.16,-23437,9903,-14380,-422.32,0.48,0,0.02,0.12,-0.94,-3.05,,-0.31,1,4.1,7.17,71.8,3.94,7.15,189.8,4.18,0.58,6.3,264,162
922044,2000,1,3,18,26,44,83,107.06,123,9,-1047,1.24,0.1,-10.02,5,0,1,0,64,367,1479.11,35.18,862.05,34.02,15.03,-25997,9845,-19587,-422.32,0.48,0,0.02,0.13,-0.94,-2.99,1.28,-0.49,1,4.1,7.18,71.7,3.83,7.15,236,4.18,0.66,6.7,267,162
932069,2000,1,3,18,26,54,83,105.58,130,13,-1047,1.23,0.1,-10.03,5,0,1,0,64,367,1478.48,35.16,862.1,34.02,15.22,-25485,9939,3577,-422.32,0.48,0,0.02,0.13,-0.94,-2.99,1.22,-0.12,1,4.1,7.21,71.7,3.85,7.16,238.4,4.18,0.63,6.2,270,205
942080,2000,1,3,18,27,4,83,105.73,124,6,-1046,1.18,0.07,-10.05,5,0,1,0,64,366,1479.65,35.22,862.02,34.04,15.34,-24205,10074,5450,-422.32,0.48,0,0.02,0.12,-0.94,-3.05,1.22,-0.18,1,4.1,7.19,72.4,3.88,7.2,170.7,4.18,0.6,6.1,273,159
952094,2000,1,3,18,27,14,83,107.86,132,9,-1048,1.23,0.08,-10.07,5,0,1,0,64,366,1479.73,35.25,862.02,34.08,15.5,-20621,10053,32177,-422.32,0.48,0,0.02,0.12,-0.94,-3.05,1.22,-0.31,1,4.1,7.16,71.9,3.77,7.14,208.7,4.18,0.62,6.2,276,160
962117,2000,1,3,18,27,24,83,107.65,128,7,-1047,1.18,0.12,-10.02,5,0,1,0,64,366,1479.18,35.27,862.08,34.11,15.62,-17549,10178,15869,-422.32,0.48,0,0.02,0.12,-0.94,-2.99,1.22,0,1,4.1,7.17,71.9,3.84,7.16,310.6,4.18,,6,279,160
972126,2000,1,3,18,27,34,83,104.62,128,10,-1047,1.25,0.11,-10.03,5,0,1,0,64,366,1479.36,35.27,862.07,34.13,15.16,-15245,9748,20691,-422.32,0.48,0,0.02,0.12,-0.94,-3.05,1.22,-0.31,1,4.1,7.21,71.6,3.82,7.16,250.7,4.18,0.67,6.6,282,162
982126,2000,1,3,18,27,44,83,96.39,112,2,-1054,1.1,-0.02,-9.99,5,0,1,0,64,366,1480.03,35.26,862,34.1,15.46,-18317,10129,4506,-422.32,0.48,0,0.02,0.12,-0.94,-3.11,1.28,-0.31,1,4.1,7.16,72.1,3.85,7.17,201.6,4.18,0.64,6.3,285,203
992131,2000,1,3,18,27,54,83,106.76,128,9,-1048,1.24,0.1,-10.1,5,0,1,0,64,366,1480.36,35.31,861.99,34.19,15.53,-9869,10011,4806,-422.32,0.48,0,0.02,0.12,-0.94,-3.05,1.28,-0.43,1,4.1,7.16,72.4,3.9,7.17,158.1,4.18,0.59,6.1,288,172
1002143,2000,1,3,18,28,4,83,93.97,134,9,-1047,1.27,0.08,-10.03,5,0,1,0,64,365,1480.28,35.29,861.99,34.2,15.41,-9101,9730,-12428,-422.32,0.48,0,0.02,0.11,-0.94,-2.93,1.22,0,1,4.1,7.17,72.1,3.89,7.15,260.6,4.18,0.62,6.2,291,203
1012152,2000,1,3,18,28,14,83,108.88,135,4,-1048,1.24,0.1,-9.99,5,0,1,0,64,365,1480.5,35.34,861.99,34.19,15.42,-9869,10011,30332,-422.32,0.48,0,0.02,0.12,-0.94,-3.05,1.16,0.61,1,4.1,7.17,71.8,3.94,7.16,203.6,4.18,0.58,6.1,294,160
1022177,2000,1,3,18,28,24,83,105.77,114,12,-1048,1.04,,-10.03,5,0,1,0,64,365,1480.55,35.36,861.99,34.24,15.17,-5261,9916,-17704,-422.32,0.48,0,0.03,0.13,-0.94,-3.05,1.22,0.18,1,4.1,7.2,71.7,3.83,7.15,202.9,4.18,0.61,6.4,297,160
1032179,2000,1,3,18,28,34,83,103.24,122,-1,-1048,1.17,0.03,-10.04,5,0,1,0,64,365,1480.14,35.36,862.03,34.23,15.18,-5773,9950,11743,-422.32,0.48,0,0.02,0.11,-0.94,-3.11,1.28,-0.43,1,4.1,7.18,72,3.9,7.14,185.4,4.18,0.6,6.1,300,170
1042190,2000,1,3,18,28,44,83,105.06,117,-6,-1050,1.13,-0.05,-10.02,5,0,1,0,64,365,1481.09,35.37,861.95,34.27,15.25,-2445,10163,-8945,-422.32,0.48,0,0.01,0.12,-0.94,-3.17,1.4,3.17,1,4.1,7.2,72,3.82,7.18,234.8,4.18,0.59,6.3,303,172
1052217,2000,1,3,18,28,54,83,106.47,127,1,-1049,1.24,-0.02,-10.03,5,0,1,0,65,364,1480.55,35.35,861.99,34.25,15.3,-3469,10103,2092,-422.32,0.48,0,0.02,0.12,-0.94,-3.05,1.34,0,1,4.1,7.14,71.7,3.9,7.18,199.2,4.18,0.61,6.2,306,213
1062242,2000,1,3,18,29,5,83,97.16,125,-9,-1052,1.23,-0.07,-10.08,5,0,1,0,64,365,1481.5,35.36,861.91,34.28,15.38,-909,10088,10850,-422.32,0.48,0,0,0.12,-0.94,-2.99,1.22,-0.12,1,4.1,7.19,71.6,3.85,7.17,165.7,4.18,0.71,6.4,309,213
1072242,2000,1,3,18,29,15,83,104.22,128,5,-1048,1.25,0.06,-10.05,5,0,1,0,64,365,1481.79,35.42,861.91,34.28,15.42,-1165,10239,18301,-422.32,0.48,0,0.02,0.13,-0.94,-2.99,1.22,-0.85,1,4.1,7.2,71.8,3.86,7.16,167.1,4.18,0.66,6.8,312,170
1082255,2000,1,3,18,29,25,83,104.95,118,-2,-1042,1.15,0.04,-10.01,5,0,1,0,64,366,1480.93,35.39,861.97,34.29,15.32,116,10041,31293,-422.32,0.48,0,0.02,0.12,-0.94,-2.99,1.16,-0.31,1,4.1,7.13,71.6,3.91,7.17,224.9,4.18,0.67,6.9,315,213
1092268,2000,1,3,18,29,35,83,105.79,131,6,-1052,1.25,-0.01,-10.06,5,0,1,0,65,366,1481.82,35.44,861.91,34.32,15.39,2932,10195,-3736,-422.32,0.48,0,0.02,0.12,-0.94,-2.99,1.22,-0.43,1,4.1,7.17,72.2,3.94,7.17,200.9,4.18,0.67,7,318,170
1102268,2000,1,3,18,29,45,83,103.7,132,2,-1046,1.24,0.03,-10.02,5,0,1,0,64,366,1480.87,35.45,862.01,34.3,15.47,628,10075,-7009,-422.32,0.48,0,0.02,0.12,-0.94,-3.05,1.34,-0.61,1,4.1,7.14,71.9,3.77,7.16,235,4.18,0.63,,321,170
1112289,2000,1,3,18,29,55,83,106.72,123,12,-1052,1.18,0.12,-10.07,5,0,1,0,64,366,1481.47,35.42,861.94,34.33,15.29,3956,10007,-13272,-422.32,0.48,0,0.02,0.12,-0.94,-3.11,1.22,0.43,1,4.1,7.21,71.7,3.89,7.14,204.2,4.18,0.63,6.3,324,213
1122291,2000,1,3,18,30,5,83,96.43,112,4,-1046,1.05,0.08,-10.05,5,0,1,0,65,366,1480.74,35.4,862,34.36,15.55,6260,10179,13268,-422.32,0.48,0,0.03,0.13,-0.94,-3.11,1.22,0.24,1,4.1,7.13,72,3.77,7.2,254.5,4.18,0.71,6.6,327,256
1132316,2000,1,3,18,30,15,83,103.64,115,5,-1052,1.1,0.07,-10.1,5,0,1,0,64,365,1480.9,35.46,862.01,34.34,15.62,4980,10025,28414,-422.32,0.48,0,0.02,0.12,-0.94,-2.99,1.16,2.62,1,4.1,7.18,71.5,3.91,7.18,190.2,4.18,0.58,5.9,330,213
1142337,2000,1,3,18,30,25,83,103.02,121,-1,-1048,1.21,0.01,-10.01,5,0,1,0,64,365,1481.88,35.49,861.93,34.4,15.65,10356,10246,19218,-422,0.48,0,0.02,0.12,-0.94,-3.05,1.28,-0.61,1,4.1,7.12,72.6,3.89,7.2,243.9,4.18,0.64,6.5,333,211
1152348,2000,1,3,18,30,35,83,100.83,130,3,-1049,1.24,0.05,-10.01,5,0,1,0,64,365,1481.29,35.51,861.99,34.39,15.67,9844,10265,-5088,-422.32,0.48,0,0.02,0.13,-0.94,-2.99,1.22,-2.56,1,4.1,7.21,71.8,3.87,7.18,184.2,4.18,0.65,6.4,336,213
1162360,2000,1,3,18,30,45,83,108.36,128,3,-1047,1.22,0.09,,5,0,1,0,64,365,1482.09,35.54,861.93,34.42,15.73,12148,10385,-16313,-422.32,0.48,0,0.03,0.11,-0.94,-2.99,1.28,-0.55,1,4.1,7.14,72.1,3.8,7.16,230.9,4.18,0.65,6.5,339,211
1172367,2000,1,3,18,30,55,83,103.23,124,3,-1047,1.2,-0.01,-10.06,5,0,1,0,65,364,1481.85,35.6,861.98,34.43,15.72,12916,10398,13634,-422.32,0.48,0,0.02,0.13,-0.94,-3.11,1.22,2.44,1,4.1,7.17,71.7,3.9,7.18,263.9,4.18,0.65,6.6,342,168
1182386,2000,1,3,18,31,5,83,105.95,142,7,-1047,1.35,0.05,-10.05,5,0,1,0,65,364,1480.71,35.62,862.1,34.44,15.74,14452,10309,5200,-422.32,0.48,0,0.02,0.13,-0.94,-2.99,1.28,-1.22,1,4.1,7.15,72,3.94,7.2,265.1,4.18,0.61,6.2,345,168
1192388,2000,1,3,18,31,15,83,106.98,129,8,-1044,1.24,0.06,-9.95,5,0,1,0,65,364,1481.22,35.64,862.06,34.5,15.55,20340,10026,-2096,-422.32,0.48,0,0.02,0.13,-0.94,-3.11,1.1,-0.06,1,4.09,7.15,71.8,3.86,7.18,279.8,4.18,0.68,6.8,348,168
1202399,2000,1,3,18,31,25,83,105.39,128,1,-1048,1.23,0.07,-10.06,5,0,1,0,65,364,1481.54,35.65,862.03,34.51,15.14,21108,9765,-31548,-422.32,0.48,0,0.02,0.12,-0.94,-3.17,1.16,-0.18,1,4.1,7.19,71.7,3.89,7.22,186.9,4.18,0.58,5.9,351,168
1212426,2000,1,3,18,31,35,83,105.14,114,14,-1050,1.08,0.1,-10.05,5,0,1,0,65,364,1481.47,35.67,862.05,34.52,15.21,22132,9953,16884,,0.48,0,0.03,0.13,-0.94,-3.05,1.28,-0.24,1,4.1,7.17,72.1,3.8,7.18,228.7,4.18,0.68,6.8,354,168
1222434,2000,1,3,18,31,45,83,104.42,133,5,-1040,1.31,0.08,-9.99,5,0,1,0,65,363,1481.65,35.66,862.03,34.54,15.47,24180,10072,-18532,-422.32,0.48,0,0.02,0.12,-0.94,-2.99,1.28,-0.49,1,4.1,7.19,72,3.9,7.14,149.2,4.18,0.65,6.5,357,213
1232447,2000,1,3,18,31,55,83,108.26,127,14,-1049,1.24,0.11,-10.05,5,0,1,0,65,363,1482.2,35.72,862,34.53,15.4,22644,10238,2928,-422.32,0.48,0,0.02,0.13,-0.94,-2.99,1.4,0.79,1,4.1,7.18,71.7,3.86,7.21,278.2,4.18,0.7,7,360,168
1242462,2000,1,3,18,32,5,83,105.76,128,12,-1045,1.23,0.09,-9.99,5,0,1,0,65,362,1482.11,35.74,862.02,34.57,15.55,26996,9994,-2096,-422.32,0.48,0,0.02,0.12,-0.94,-2.99,1.22,-0.18,1,4.1,7.19,71.6,3.91,7.15,311.5,4.18,0.6,5.8,363,128
1252462,2000,1,3,18,32,15,83,108.09,124,6,-1047,1.21,0.11,-10.07,5,0,1,0,65,362,1482.63,35.69,861.95,34.59,15.7,28532,10412,14391,-422.32,0.48,0,0.02,0.12,-0.94,-2.99,1.28,-0.37,1,4.1,7.2,72,3.83,7.2,281.8,4.18,0.62,6.1,366,256
1262495,2000,1,3,18,32,25,83,97.26,131,5,-1049,1.21,0.06,-10.06,5,0,1,0,65,361,1482.54,35.75,861.99,34.6,15.76,29300,10403,26972,-422.32,0.48,0,0.02,0.12,-0.94,-3.11,1.16,0.31,1,,7.18,71.6,3.89,7.16,175.6,4.18,0.71,6.8,369,209
1272508,2000,1,3,18,32,35,83,96.16,118,6,-1044,1.16,0.06,-10.02,5,0,1,0,65,361,1482.23,35.75,862.01,34.65,15.69,-31116,10469,-3282,-422.32,0.48,0,0.02,0.11,-0.94,-3.05,1.16,-0.43,1,4.1,7.2,72,3.95,7.2,240.4,4.18,0.65,6.4,372,252
1282529,2000,1,3,18,32,45,83,105.45,109,-1,-1051,1.01,-0.02,-10.08,5,0,1,0,65,361,1483.3,35.84,861.95,34.68,15.69,-28300,10289,-20688,-422.32,0.48,0,0.02,0.13,-0.94,-3.05,1.34,0.06,1,4.1,7.18,72.1,3.94,7.21,197.2,4.18,0.61,6.3,375,166
1292531,2000,1,3,18,32,55,83,107.16,126,8,-1051,1.22,0.1,-10.03,5,0,1,0,65,361,1483.02,35.85,861.98,34.68,15.63,-28300,10289,-761,-422.32,0.48,0,0.02,0.12,-0.94,-3.05,1.1,1.04,1,4.1,7.14,71.9,3.92,7.15,206.5,4.18,0.64,6.8,378,166
1302536,2000,1,3,18,33,5,83,106.26,128,6,-1044,1.24,0.06,-10.07,5,0,1,0,65,361,1483.08,35.87,861.99,34.68,15.65,-28044,10338,6161,-422.32,0.48,0,0.02,0.12,-0.94,-3.05,1.28,-1.04,1,4.1,7.18,71.7,3.96,7.2,190.8,4.18,0.6,6,381,166
1312540,2000,1,3,18,33,15,83,106.54,129,-3,-1050,1.24,0.01,-10.09,5,0,1,0,65,360,1482.67,35.9,862.04,34.71,15.73,-25228,10316,-29622,-422.32,0.48,0,0.02,0.13,-0.94,-3.05,1.1,-0.851,1,4.1,7.18,71.5,3.87,7.16,262.9,4.18,0.66,6.9,384,164
1322543,2000,1,3,18,33,25,83,95.43,131,6,-1053,1.22,0.07,-10.05,5,0,1,0,65,360,1482.68,35.88,862.03,34.77,15.66,-19852,10468,-16873,-422.32,0.48,0,0.02,0.12,-0.94,-3.11,1.28,-0.491,1,4.1,7.22,71.9,3.9,7.14,247.5,4.18,0.6,6.3,387,209
1332547,2000,1,3,18,33,35,83,103.05,128,2,-1052,1.21,0.03,-10.05,5,0,1,0,65,360,1482.79,35.86,862.01,34.74,15.52,-22156,10061,-31295,-422.32,0.48,0,0.02,0.12,-0.94,-3.05,1.22,-0.731,1,4.1,7.19,71.8,3.86,7.16,220.1,4.18,0.6,6.1,390,252
1342570,2000,1,3,18,33,45,83,104,125,9,-1049,1.23,0.09,-10.05,5,0,1,0,65,360,1482.98,35.91,862.02,34.75,15.31,-21132,10121,-15563,-422.32,0.48,0,0.02,0.12,-0.94,-3.11,1.28,-0.121,1,4.1,7.17,72,3.89,7.15,208.1,4.17,0.62,6.3,393,207
1352591,2000,1,3,18,33,55,83,107.1,125,1,-1049,1.18,0.09,-10.03,5,0,1,0,65,360,1483.06,35.9,862,34.77,15.23,-19852,10212,-15871,-422.32,,0,0.02,0.12,-0.94,-3.05,1.28,-0.551,1,4.1,7.22,71.9,3.86,7.17,310.9,4.18,0.59,6,396,252
1362604,2000,1,3,18,34,5,83,106.59,141,8,-1047,1.3,0.12,-9.98,5,0,1,0,65,359,1482.8,35.99,862.07,34.78,15.21,-18572,9745,-19215,-422.32,0.48,0,0.02,0.12,-0.94,-3.05,1.16,-0.431,1,4.1,7.18,71.8,3.86,7.18,204.9,4.17,0.64,6,399,163
1372608,2000,1,3,18,34,15,83,103.69,123,5,-1040,1.19,0.07,-10,5,0,1,0,1,360,1482.78,35.97,862.06,34.79,14.91,-18060,9742,-3279,-422.32,0.48,0,0.02,0.13,-0.94,-2.99,1.1,0.791,1,4.1,7.2,71.5,3.91,7.14,213.1,4.18,0.73,7.3,402,209
1382631,2000,1,3,18,34,25,83,107.69,135,-2,-1046,1.3,0,-10.05,5,0,1,0,65,360,1483.15,35.94,862.01,34.8,15.12,-16268,9854,440,-422.32,0.48,0,0.02,0.12,-0.94,-2.99,1.22,-0.851,1,4.1,7.21,72.3,3.87,7.17,199.5,4.18,0.69,7,405,252
1088634871,2000,1,3,18,34,35,83,108.52,129,3,-1043,1.2,0.05,-10.06,5,0,1,0,65,360,1483.97,36.04,861.98,34.82,15.16,-14732,9944,-2347,-422.32,0.48,0,0.02,0.12,-0.94,-2.99,1.22,-2.321,1,4.1,7.2,71.8,3.86,7.15,206.1,4.18,0.6,6.3,408,162
1402658,2000,1,3,18,34,45,83,108.74,118,1,-1045,1.11,0.01,-10.02,5,0,1,0,41,360,1483.42,35.98,862,34.8,15.16,-16268,9854,976,-422.32,0.48,0,0.02,0.12,-0.94,-3.05,1.16,2.141,1,4.1,,71.8,3.82,7.19,240.2,4.18,0.7,6.8,411,252
1412669,2000,1,3,18,34,55,83,107.68,123,8,-1048,1.2,0.08,-9.99,5,0,1,0,65,360,1484.39,36.06,861.95,34.86,15.28,-11404,10094,9763,-422.32,0.48,0,0.02,0.12,-0.94,-3.05,1.1,1.101,1,4.1,7.16,71.9,3.87,7.18,189.5,4.18,0.6,6,414,162
1422696,2000,1,3,18,35,5,83,108.66,121,9,-1047,1.1,0,-10.06,5,0,1,0,65,360,1484.67,36.08,861.93,34.86,15.47,-11404,10094,-18532,-422.32,0.48,0,0.01,0.13,-0.94,-3.11,1.22,2.751,1,4.1,7.16,71.7,3.8,7.18,241.4,4.17,0.57,5.9,417,162
1432700,2000,1,3,18,35,15,83,110.84,115,14,-1043,1.03,0.11,-10,5,0,1,0,42,360,1482.65,36.09,862.13,34.89,15.44,-8076,10232,12424,-422.32,0.48,0,0.01,0.11,-0.94,-2.93,1.1,5.131,1,4.1,7.16,72.1,3.85,7.2,249.1,4.18,0.67,6.5,420,162
1442715,2000,1,3,18,35,25,83,96.57,137,9,-1047,1.35,0.09,-10.01,5,0,1,0,65,360,1486.64,36.02,861.72,34.91,15.41,-6540,10078,-395,-422.32,0.48,0,0.01,0.12,-0.95,-2.93,1.04,0.981,1,4.1,7.16,72.1,3.84,7.2,175.6,4.18,0.63,6.1,423,256
1452722,2000,1,3,18,35,35,83,111.99,123,8,-1050,1.15,0.06,-10.07,5,0,1,0,65,361,1485.2,36.1,861.89,34.95,15.21,-1932,9730,-19215,-422.32,0.48,0,0.03,0.12,-0.94,-3.05,1.16,1.101,1,4.1,7.26,72.2,3.85,7.22,174.1,4.17,0.64,6.1,426,161
1462734,2000,1,3,18,35,45,83,112.24,147,-9,-1054,1.43,-0.08,-10.08,5,0,1,0,41,361,1484.93,36.06,861.9,34.96,15.2,-908,9926,-5905,-422.32,0.48,0,0,0.12,-0.94,-2.93,1.71,-0.791,1,4.1,7.16,72.2,3.83,7.16,141.1,4.17,0.65,6.1,429,205
1472739,2000,1,3,18,35,55,83,107.51,134,-4,-1045,1.29,0.05,-9.99,5,0,1,0,65,361,1484.57,36.11,861.95,34.94,15.25,-3468,10201,-29172,-422.32,0.48,0,0.01,0.13,-0.94,-2.99,1.16,-1.891,1,4.09,7.11,72,3.82,7.17,212.2,4.18,0.61,6.3,432,162
1482741,2000,1,3,18,36,5,83,110.94,121,8,-1046,1.17,0.03,-10.05,5,0,1,0,65,362,1485.11,36.08,861.89,34.99,15.11,1397,9784,-5197,-422.32,0.48,0,0.02,0.12,-0.94,-2.99,1.16,-1.281,1,4.1,7.12,72.2,3.93,7.19,190,4.17,0.62,6.3,435,205
1492762,2000,1,3,18,36,15,83,110.84,123,18,-1054,1.14,0.16,-10.07,5,0,1,0,42,362,1485.7,36.04,861.82,35.02,15.11,3957,9955,-30287,-422.32,0.48,,0.01,0.12,-0.94,-2.99,0.92,10.071,1,4.1,7.18,71.5,3.85,7.21,203.6,4.17,0.65,6.5,438,258
1502777,2000,1,3,18,36,25,83,109.84,127,1,-1048,1.19,0.03,-10,5,0,1,0,65,362,1484.46,36.13,861.98,35,15.19,2165,9844,32744,-422.32,0.48,0,0.02,0.13,-0.94,-3.11,1.28,-0.671,1,4.1,7.18,71.8,3.88,7.15,210.3,4.18,0.71,6.8,441,160
1512792,2000,1,3,18,36,35,83,101.13,127,7,-1046,1.21,0.02,-10.01,5,0,1,0,65,362,1484.34,36.06,861.95,35.01,14.82,3189,9648,27892,-422.32,0.48,0,0.02,0.12,-0.94,-3.11,1.1,0.241,1,4.1,7.16,71.8,3.9,7.16,236,4.18,0.6,5.9,444,247
1522800,2000,1,3,18,36,45,83,104.12,117,6,-1044,1.2,0.08,-9.97,5,0,1,0,42,362,1483.2,36.06,862.06,35.03,14.97,5749,9768,-16296,-422.32,0.48,0,0.02,0.12,-0.94,-3.11,1.22,0.611,1,4.09,7.16,72,3.9,7.18,176.4,4.18,0.73,6.9,447,258
1532821,2000,1,2,18,36,55,83,100.48,118,3,-1046,1.15,0.05,-10.05,5,0,1,0,66,362,1484.78,36.11,861.94,35.01,14.99,3189,9904,-8606,-422.32,0.48,0,0.02,0.12,-0.94,-3.11,1.22,-3.541,1,4.1,7.15,72.1,3.9,7.17,176.1,4.18,0.66,6.9,450,203
1542848,2000,1,3,18,37,5,83,109.21,129,14,-1043,1.24,0.14,-10.03,5,0,1,0,66,362,1484.64,36.17,861.97,35.04,15.11,6517,9734,31924,-422.32,0.48,0,0.03,0.13,-0.94,-3.05,1.1,0.181,1,4.09,7.17,,3.89,7.15,185,4.18,0.6,6.2,453,160
1552852,2000,1,3,18,37,15,83,107,126,6,-1048,1.23,0.07,-10.02,5,0,1,0,42,362,1484.34,36.17,862,35.02,15.23,4725,9964,-21505,-422.32,0.48,0,0.02,0.15,-0.94,-3.05,1.34,0.791,1,4.1,7.21,71.6,3.84,7.21,199.4,4.17,0.66,6.7,456,173
1562869,2000,1,3,18,37,25,83,110.25,132,-2,-1042,1.24,-0.05,-10.03,5,0,1,0,65,362,1485.92,36.19,861.87,35.04,15.29,6261,10039,-11482,-422.32,0.48,0,0.02,0.12,-0.94,-2.99,1.22,-1.531,1,4.09,7.14,72.4,3.93,7.17,164.9,4.18,0.72,6.7,459,158
1572884,2000,1,3,18,37,35,83,109.79,133,4,-1043,1.25,0.01,-9.97,5,0,1,0,65,362,1483.86,36.15,862.04,35.07,15.2,9589,9918,11499,-422.32,0.48,0,0.02,0.13,-0.94,-3.05,1.22,-1.531,1,4.1,7.21,71.6,3.9,7.19,315.2,4.17,0.65,6.6,462,213
1582897,2000,1,3,18,37,45,83,103.16,153,3,-1047,1.44,0.05,-10.01,5,0,1,0,42,362,,36.17,861.98,35.08,15.19,10613,9923,32744,-422.32,0.48,0,0.01,0.12,-0.94,-2.87,1.34,-1.161,1,4.09,7.16,71.9,3.72,7.2,261.5,4.17,0.62,6.5,465,202
1592926,2000,1,3,18,37,55,83,100.37,134,9,-1045,1.25,0.05,-10.06,5,0,1,0,65,362,1486.44,36.21,861.83,35.11,15.15,12917,9834,28367,-422.32,0.48,0,0.02,0.12,-0.94,-2.99,1.46,-1.461,1,4.1,7.19,71.7,3.92,7.16,272.8,4.18,0.64,6.7,468,170
1602940,2000,1,3,18,38,5,83,108.14,130,-5,-1043,1.26,-0.06,-9.98,5,0,1,0,65,362,1485.62,36.21,861.91,35.12,15.06,13685,9981,21391,-422.32,0.48,0,0.01,0.12,-0.94,-2.99,0.92,-0.121,1,4.1,7.21,72.2,3.83,7.16,279.4,4.17,0.63,6.1,471,170
1612955,2000,1,3,18,38,15,83,110.22,131,-12,-1042,1.24,-0.08,-10.01,5,0,1,0,42,362,1484.65,36.23,862,35.14,15.08,15477,9845,-1120,-422.32,0.48,0,0.01,0.13,-0.94,-2.93,1.34,-3.481,1,4.09,7.17,71.9,3.88,7.15,285.5,4.17,0.67,6.8,474,170
1622962,2000,1,3,18,38,25,83,115.15,144,6,-1052,1.37,0.06,-10.05,5,0,1,0,65,362,1484.7,36.24,862,35.12,15.1,13941,9902,-18515,-422.32,0.48,0,0.02,0.12,-0.94,-2.99,1.1,-1.341,1,4.09,7.14,72.2,3.9,7.17,145.4,4.18,0.65,6.1,477,170
1632976,2000,1,3,18,38,35,83,112.42,120,-5,-1046,1.18,-0.01,-10.03,5,0,1,0,65,362,1485.28,36.2,861.93,35.15,15.08,17269,9891,-1120,-422.32,0.48,0,,0.12,-0.94,-3.05,1.1,0.491,1,4.09,7.2,71.2,3.94,7.15,131.6,4.17,0.63,6.6,480,213
1642985,2000,1,3,18,38,45,83,111.47,131,2,-1051,1.25,0.1,-10.07,5,0,1,0,42,362,1484.07,36.25,862.06,35.18,14.89,19317,9754,17700,-422.32,0.48,0,0.02,0.12,-0.94,-2.99,1.46,-3.111,1,4.1,7.14,71.8,4.08,7.17,11.6,4.17,0.7,6.3,483,170
1652992,2000,1,3,18,38,55,83,111.33,120,4,-1044,1.16,0.03,-10.06,5,0,1,0,65,362,1485.86,36.25,861.9,35.17,14.71,18549,9545,15531,-422.32,0.48,0,0.02,0.12,-0.94,-3.05,1.22,0.121,1,4.09,7.16,72.1,3.92,7.21,187.5,4.17,0.6,6.4,486,169
1662998,2000,1,3,18,39,5,83,111.29,123,9,-1043,1.17,0.05,-10,5,0,1,0,65,362,1485.02,36.25,861.98,35.2,14.52,21365,9696,-11988,-422.32,0.48,0,0.02,0.13,-0.94,-3.05,1.22,0.241,1,4.09,7.16,72.2,3.95,7.18,185.8,4.18,0.68,6.6,489,170
1673029,2000,1,3,18,39,11,64,96.81,133,3,-1045,1.26,0.02,-10.07,5,0,1,0,42,362,1483.62,36.17,862.07,35.17,14.61,18549,9545,1639,-422.32,0.48,0,0.01,0.12,-0.94,-2.99,1.22,-0.491,1,4.09,7.16,71.5,3.87,7.17,257.7,4.17,0.58,6.2,492,254
1683044,2000,1,3,18,39,25,83,95.66,132,13,-1046,1.27,0.14,-10.07,5,0,1,0,65,362,1484.54,36.25,862.02,35.19,14.68,20341,9694,-25703,-422.32,0.48,0,0.02,0.12,-0.94,-3.05,1.1,0.981,1,4.09,7.18,72,,7.18,266.4,4.18,0.63,6.1,495,168
1693073,2000,1,3,18,39,35,83,99.05,112,11,-1047,1.03,0.11,-10.05,5,0,1,0,65,362,1484.72,36.21,861.99,35.19,14.28,20597,9395,4757,-422.32,0.48,0,0.02,0.13,-0.94,-3.11,1.22,0.181,1,4.09,7.12,72.1,3.93,7.16,172.5,4.17,0.65,5.9,498,211
1703098,2000,1,3,18,39,45,83,107.74,129,8,-1045,1.24,0.06,-10.04,5,0,1,0,42,361,1483.62,36.27,862.11,35.21,14.3,22389,9252,-25956,-422.32,0.48,0,0.03,0.13,-0.94,-2.93,1.22,0.001,1,4.09,7.15,72,3.84,7.19,168,4.18,0.62,6.7,501,168
1713111,2000,1,3,18,39,55,83,99.37,123,7,-1049,1.16,0.11,-10.01,5,0,1,0,66,361,1484.71,36.21,861.99,35.23,14.62,24181,9644,-29074,-422.32,0.48,0,0.02,0.12,-0.94,-3.11,1.28,-0.611,1,4.09,7.21,71.7,3.83,7.16,239.2,4.18,0.68,7,504,256
1723127,2000,1,3,18,40,5,83,110.72,131,7,-1040,1.26,0.06,-10.03,5,0,1,0,66,360,1484.46,,862.05,35.23,14.69,24181,9644,-6239,-422.32,0.48,0,0.02,0.12,-0.94,-2.99,1.16,-0.241,1,4.09,7.19,72.3,3.88,7.16,208.4,4.18,0.61,6.3,507,168
1733158,2000,1,3,18,40,16,83,103.41,127,8,-1045,1.24,0.09,-10.06,5,0,1,0,42,360,1483.93,36.3,862.1,35.23,14.56,24949,9543,27212,-422.32,0.48,0,0.02,0.12,-0.94,-3.05,1.28,-0.671,1,4.09,7.17,71.8,3.86,7.19,253.1,4.17,0.6,6.1,510,168
1743177,2000,1,3,18,40,26,83,111.42,127,11,-1045,1.22,0.09,-10.01,5,0,1,0,66,360,1485.15,36.31,861.99,35.26,14.6,27253,9645,14182,-422.32,0.48,0,0.02,0.12,-0.94,-3.17,1.16,0.181,1,4.09,7.18,71.6,3.84,7.18,187.4,4.18,0.6,6,513,168
1753208,2000,1,3,18,40,36,83,110.27,128,6,-1050,1.24,0.04,-10.05,5,0,1,0,66,359,1485.28,36.33,861.99,35.24,14.79,25717,9650,12766,-422.32,0.48,0,0.03,0.12,-0.94,-3.05,1.22,-0.671,1,4.1,7.22,71.6,3.87,7.16,272.2,4.18,0.61,6.5,516,168
1763239,2000,1,3,18,40,46,83,109,119,2,-1045,1.11,0.03,-10.04,5,0,1,0,66,359,1485.41,36.35,861.99,35.25,14.87,26485,9953,5907,-422.32,0.48,0,0.02,0.12,-0.94,-3.11,1.16,-0.981,1,4.09,7.14,72,3.8,7.19,189.6,4.17,0.7,7,519,168
1773268,2000,1,3,18,40,56,83,110.35,124,7,-1044,1.19,0.06,-10.06,5,0,1,0,66,358,1485.33,36.37,862,35.29,15.02,30325,9875,2677,-422.32,0.48,0,0.02,,-0.94,-3.05,1.1,0.491,1,4.09,7.17,72.1,3.92,7.14,235.3,4.18,0.62,6.3,522,168
1783285,2000,1,3,18,41,6,83,110.45,133,1,-1045,1.3,-0.01,-9.97,5,0,1,0,66,357,1485.61,36.39,861.99,35.28,15.13,29557,9830,16576,-422.32,0.48,0,0.02,0.13,-0.94,-3.05,1.28,-1.461,1,4.1,7.2,72.1,3.92,7.2,158.1,4.17,0.61,6.1,525,168
1793316,2000,1,3,18,41,16,83,109.28,126,8,-1044,1.17,0.08,-10,5,0,1,0,66,357,1485.41,36.31,861.01,35.31,15.16,32117,9849,20691,-422.32,0.48,0,0.02,0.11,-0.94,-2.93,1.16,-0.431,1,4.09,7.23,71.7,3.81,7.21,315.7,4.18,0.59,6.3,528,301
1803343,2000,1,3,18,41,26,83,96.28,129,-3,-1051,1.19,-0.02,-10.02,5,0,1,0,65,358,1486.12,36.37,861.93,35.29,14.85,29813,9969,-3579,-422.32,0.48,0,0.02,0.12,-0.94,-3.05,1.22,-1.341,1,4.09,7.14,72.1,3.84,7.21,194.1,4.17,0.71,7.1,531,213
1813360,2000,1,3,18,41,36,83,7.13,125,4,-1047,1.14,0.02,-10.05,5,0,1,0,66,358,1485.24,36.34,862,35.32,14.72,-32395,9606,24757,-422.32,0.48,0,0.02,0.12,-0.94,-3.05,1.16,0.121,1,4.09,7.16,72,3.88,7.17,197.7,4.17,0.66,6.8,534,256
1823375,2000,1,3,18,41,46,83,110.18,133,10,-1046,1.24,0.08,-10,5,0,1,0,66,358,1485.58,36.38,861.98,35.31,14.61,32117,9593,-8851,-422.32,0.48,0,0.02,0.12,-0.94,-3.11,1.22,-1.341,1,4.09,7.16,71.9,3.91,,215.3,4.18,0.68,6.7,537,213
1833394,2000,1,3,18,41,56,83,109.96,134,15,-1044,1.24,0.1,-10.06,5,0,1,0,66,358,1486.14,36.39,861.94,35.33,14.52,-31883,9700,-8655,-422.32,0.48,0,0.02,0.11,-0.94,-3.05,1.22,0.241,1,4.09,7.18,71.7,3.85,7.17,243.1,4.18,0.57,5.7,540,213
1843402,2000,1,3,18,42,6,83,109.44,138,7,-1042,1.35,0.12,-10.04,5,0,1,0,66,358,1485.99,36.44,861.97,35.31,14.47,31861,9544,26125,-422.32,0.48,0,0.03,0.11,-0.94,-3.05,1.22,-0.671,1,4.09,7.16,71.9,3.85,7.16,156.5,4.17,0.6,5.7,543,168
1853411,2000,1,3,18,42,16,83,107.47,147,15,-1056,1.44,0.15,-10.11,5,0,1,0,65,358,1486.31,36.4,861.93,35.34,14.36,-30091,9324,24004,-422.32,0.48,0,0.03,0.11,-0.95,-3.05,1.1,1.591,1,4.09,7.21,71.6,3.9,7.2,155.2,4.17,0.62,6.1,546,209
1863411,2000,1,3,18,42,26,83,108.85,128,11,-1041,1.24,0.09,-9.99,5,0,1,0,66,358,1486.15,36.39,,35.35,14.42,-29579,9418,23792,-422.32,0.48,0,0.03,0.12,-0.94,-3.05,1.16,0.371,1,4.09,7.16,72.2,3.94,7.16,241.2,4.17,0.67,6.5,549,209
1873418,2000,1,3,18,42,36,83,107.06,126,4,-1047,1.21,0.05,-9.99,5,0,1,0,66,358,1486.4,36.45,861.94,35.36,14.5,-28555,9716,26660,-422.32,0.48,0,0.02,0.13,-0.94,-3.05,1.28,-0.611,1,4.09,7.23,71.8,3.83,7.17,197.7,4.18,0.63,6.5,552,168
1883428,2000,1,3,18,42,46,83,98.13,131,37,-1040,1.26,0.31,-10.01,5,0,1,0,66,358,1486.24,36.42,861.94,35.38,14.61,-26763,9571,-8851,-422.32,0.48,0,0.03,0.11,-0.94,-3.11,1.16,2.081,1,4.1,7.16,72.2,3.79,7.16,263.5,4.17,0.62,6.3,555,209
1893435,2000,1,3,18,42,56,83,107.32,126,6,-1045,1.18,0.05,-10.03,5,0,1,0,66,358,1486.43,36.45,861.94,35.37,14.22,-27531,9264,-4759,-422.32,0.48,0,0.02,0.13,-0.94,-3.11,1.04,0.791,1,4.09,7.18,72,3.91,7.19,237,4.17,0.62,5.7,558,164
1903441,2000,1,3,18,43,6,83,110.54,142,6,-1042,1.21,0.09,-10.06,5,0,1,0,66,358,1486.48,36.41,861.91,35.38,13.91,-27019,9042,-16991,-422.32,0.48,0,0.02,0.12,-0.94,-3.05,1.1,-0.611,1,4.09,7.18,71.5,3.93,7.13,193.3,4.17,0.65,5.9,561,209
1913446,2000,1,3,18,43,16,83,109.97,139,15,-1045,1.31,0.12,-9.98,5,0,1,0,66,357,1485.7,36.46,862.01,35.42,13.99,-22923,9111,-11562,-422.32,0.48,0,0.02,0.1,,-2.99,1.1,-0.371,1,4.09,7.14,72,3.9,7.17,190.4,4.18,0.59,6,564,162
1923473,2000,1,3,18,43,26,83,109.74,134,9,-1046,1.3,0.11,-10,5,0,1,0,66,357,1486.69,36.45,861.91,35.39,13.98,-25995,9007,19148,-422.32,0.48,0,0.02,0.11,-0.94,-3.05,1.16,0.061,1,4.09,7.17,71.6,3.9,7.17,176.8,4.17,0.67,6.5,567,164
1933490,2000,1,3,18,43,36,83,109.86,113,-5,-1039,1.03,-0.07,-10,5,0,1,0,66,358,1486.8,36.39,861.87,35.42,14.39,-22667,9382,19927,-422.32,0.48,0,0.01,0.13,-0.94,-3.17,1.16,-0.611,1,4.09,7.15,71.9,3.89,7.21,164.1,4.18,0.59,6,570,250
1943506,2000,1,3,18,43,46,83,107.78,117,-5,-1050,1.18,-0.04,-10.01,5,0,1,0,66,358,1487.02,36.48,861.9,35.41,14.57,-23435,9717,23373,-422.32,0.48,0,0.01,0.12,-0.94,-3.17,1.16,-0.241,1,4.09,7.18,71.6,3.84,7.14,186.7,4.17,0.61,6.2,573,164
1953509,2000,1,3,18,43,56,83,108.07,123,0,-1047,1.15,0.11,-10.03,5,0,1,0,66,358,1486.27,36.46,861.95,35.45,14.33,-19595,9249,20657,-422.32,0.48,0,0.02,0.12,-0.94,-3.11,1.1,0.241,1,4.09,7.18,72.2,3.82,7.2,148.9,4.17,0.6,6.1,576,164
1963528,2000,1,3,18,44,6,83,108.32,124,11,-1045,1.22,0.09,-10.03,5,0,1,0,66,358,1486.71,36.46,861.91,35.44,14.34,-21131,9341,-17734,-422.32,0.48,0,0.02,0.12,-0.94,-3.11,1.16,1.101,1,4.09,7.17,72.2,3.9,7.21,,4.17,0.69,6.8,579,161
1973528,2000,1,3,18,44,16,83,106.77,131,10,-1048,1.25,0.13,-10.02,5,0,1,0,66,358,1486.57,36.38,861.89,35.43,14.37,-22155,9401,-9520,-422.32,0.48,0,0.02,0.11,-0.94,-3.05,1.22,-1.341,1,4.09,7.14,72.1,3.93,7.2,177.7,4.17,0.66,6.8,582,303
1983547,2000,1,3,18,44,26,83,110.79,147,14,-1046,1.36,0.12,-10.03,5,0,1,0,66,358,1486.41,36.49,861.95,35.46,14.39,-18827,9428,474,-422.32,0.48,0,0.02,0.1,-0.94,-2.99,1.16,-0.311,1,4.09,7.18,71.8,3.92,7.17,224.6,4.17,0.66,6.7,585,164
1993568,2000,1,3,18,44,36,83,109.87,118,2,-1050,1.15,0.02,-10.08,5,0,1,0,66,358,1486.21,36.48,861.97,35.48,13.92,-17291,8975,10918,-422.32,0.48,0,0.02,0.13,-0.94,-3.05,1.16,-0.551,1,4.09,7.11,72.2,3.92,7.18,245.7,4.18,0.59,5.8,588,162
2003574,2000,1,3,18,44,46,83,109.39,127,4,-1047,1.2,0.05,-10.02,5,0,1,0,66,357,1486.34,36.43,861.93,,13.76,-14475,8989,-21954,-422.32,0.48,0,0.02,0.12,-0.94,-3.05,1.16,-0.121,1,4.09,7.17,71.6,3.85,7.18,176.8,4.17,0.65,6.7,591,250
2013585,2000,1,3,18,44,56,83,106.54,127,5,-1043,1.21,0.09,-10.04,5,0,1,0,66,357,1486.44,36.48,861.95,35.48,14.03,-17291,8975,-15375,-422.32,0.48,0,0.03,0.13,-0.94,-3.05,1.28,-0.371,1,4.09,7.18,71.4,3.84,7.14,247.9,4.18,0.71,6.8,594,207
2023614,2000,1,3,18,45,6,83,110.09,130,2,-1047,1.24,0.07,-10.07,5,0,1,0,66,357,1486.56,36.48,861.94,35.48,14.25,-17291,9231,-27263,-422.32,0.48,0,0.02,0.11,-0.94,-3.11,1.16,-0.371,1,4.09,7.14,72.2,3.89,7.2,265.8,4.17,0.62,6.3,597,205
2033631,2000,1,3,18,45,16,83,109.01,137,6,-1045,1.28,0.09,-10.03,5,0,1,0,66,357,1487.38,36.54,861.89,35.5,14.41,-15243,9294,-15126,-422.32,0.48,0,0.02,0.12,-0.94,-2.99,1.16,0.791,1,4.09,7.16,72.3,3.87,7.2,198.3,4.17,0.63,6.3,600,164
2043662,2000,1,3,18,45,26,83,97.39,130,-33,-1054,1.41,-0.13,-9.84,5,0,1,0,66,356,1487.23,36.52,861.89,35.5,14.23,-15243,9294,30067,-422.32,0.48,0,0.02,0.11,-0.94,-2.99,1.22,-0.731,1,4.09,7.21,72.1,3.89,7.22,163,4.17,0.63,6.2,603,207
2053679,2000,1,3,18,45,36,83,110.64,112,-4,-1047,1.06,-0.01,-10.04,5,0,1,0,66,357,1487.34,36.51,861.88,35.55,13.86,-10379,9054,-2692,-422.32,0.48,0,0.02,0.12,-0.94,,1.34,-1.461,1,4.09,7.16,71.7,3.85,7.16,261.7,4.17,0.67,6.9,606,161
2063681,2000,1,3,18,45,46,83,107.37,142,-3,-1047,1.34,0,-10,5,0,1,0,66,357,1486.63,36.45,861.92,35.5,13.57,-14731,8748,9406,-422.32,0.48,0,0.02,0.11,-0.94,-3.05,1.28,-1.041,1,4.09,7.16,71.9,3.86,7.17,178.3,4.17,0.67,6.7,609,250
2073704,2000,1,3,18,45,56,83,111.32,121,4,-1046,1.16,0.02,-10.07,5,0,1,0,66,357,1487.08,36.47,861.88,35.53,13.71,-11915,9208,19996,-422.32,0.48,0,0.02,0.12,-0.94,-3.11,1.22,-0.241,1,4.09,7.18,72,3.92,7.19,320.9,4.17,0.6,6,612,250
2083706,2000,1,3,18,46,6,83,97.89,132,7,-1044,1.24,0.08,-10.04,5,0,1,0,66,357,1486.63,36.46,861.92,35.53,13.83,-11915,9208,17257,-422.32,0.48,0,0.02,0.12,-0.94,-2.99,1.16,-0.241,1,4.09,7.23,71.6,3.88,7.15,159.8,4.17,0.65,6.6,615,258
2093707,2000,1,3,18,46,16,83,109.34,128,6,-1046,1.25,0.11,-10.01,5,0,1,0,66,356,1487.46,36.54,861.88,35.58,13.93,-7819,9021,-27730,-422.32,0.48,0,0.02,0.12,-0.94,-3.05,1.1,-0.121,1,4.09,7.18,71.9,3.88,7.17,247,4.17,0.62,6.3,618,162
2103713,2000,1,3,18,46,26,83,106.47,121,2,-1045,1.17,0.03,-10.05,5,0,1,0,66,356,1487.21,36.54,861.9,35.57,13.76,-8331,9191,19776,-422.32,0.48,0,0.02,0.12,-0.94,-3.05,1.16,-0.431,1,4.08,7.17,72.1,3.84,7.17,181.1,,0.67,6.5,621,162
2113746,2000,1,3,18,46,36,83,108.97,133,11,-1045,1.2,0.14,-10.03,5,0,1,0,66,355,1487.68,36.56,861.87,35.56,14.07,-9099,9396,30726,-422.32,0.48,0,0.02,0.12,-0.94,-3.05,1.22,-0.181,1,4.09,7.14,72.2,3.84,7.21,182.8,4.17,0.59,5.9,624,160
2123778,2000,1,3,18,46,46,83,109.15,133,10,-1044,1.21,0.09,-10.06,5,0,1,0,66,355,1487.19,36.59,861.93,35.58,14.26,-7307,9311,-14718,-422.32,0.48,0,0.02,0.12,-0.94,-2.99,1.22,-0.491,1,4.08,7.17,72,3.94,7.22,139,4.17,0.62,6.3,627,161
2133788,2000,1,3,18,46,56,83,110.51,123,8,-1046,1.23,0.11,-10.03,5,0,1,0,66,355,1487.23,36.56,861.91,35.59,14.25,-6283,9371,-27263,-422.32,0.48,0,0.02,0.12,-0.94,-3.11,1.22,-0.181,1,4.09,7.18,71.7,3.9,7.14,212.4,4.17,0.6,6.1,630,160
2143811,2000,1,3,18,47,6,83,110.13,122,2,-1050,1.16,0.06,-10,5,0,1,0,66,354,1487.7,36.61,861.89,35.58,1.2,-7819,9277,6960,-422.32,0.48,0,0.02,0.12,-0.94,-3.11,1.22,-0.311,1,4.08,7.2,71.6,3.93,7.18,246.1,4.17,0.6,5.8,633,160
2153820,2000,1,3,18,47,16,83,97.18,124,11,-1052,1.23,0.06,-10.03,5,0,1,0,66,354,1487.7,36.53,861.85,35.62,14.31,-3723,9342,-31578,-422.32,0.48,0,0.02,0.12,-0.94,-3.11,1.22,-0.241,1,4.09,7.21,72.4,3.78,7.22,166.6,4.17,0.58,5.8,636,247
2163826,2000,1,3,18,47,26,83,99.39,132,5,-1043,,0.07,-10.04,5,0,1,0,66,354,1488.24,36.6,861.84,35.63,14.29,-2443,9449,24216,-422.32,0.48,0,0.02,0.11,-0.94,-2.99,1.28,0.181,1,4.08,7.16,71.7,3.88,7.17,171.9,4.17,0.63,5.8,639,205
2173835,2000,1,3,18,47,36,83,96.16,131,14,-1044,1.21,0.12,-10.03,5,0,1,0,66,353,1487.96,36.59,861.86,35.63,14.45,-2443,9705,-4604,-422.32,0.48,0,0.02,0.11,-0.94,-3.05,1.1,0.061,1,4.09,7.15,72,3.81,7.17,221.7,4.17,0.68,6.6,642,205
2183868,2000,1,3,18,47,46,83,108.82,128,10,-1046,1.24,0.06,-10.04,5,0,1,0,66,353,1487.53,36.67,861.93,35.67,14.63,1142,9508,10101,0.95,1.55,0,0.02,0.12,-0.94,-3.05,1.16,-0.241,1,4.09,7.21,71.9,3.83,7.19,158.1,4.17,0.64,6.5,645,160
2193876,2000,1,3,18,47,56,83,108.7,174,5,-1020,0.86,0.27,-10.48,5,0,1,0,66,352,1488.08,36.69,861.89,35.7,14.62,3702,9727,-32397,-422.32,0.48,0,0.02,0.13,-0.94,-3.11,,0.371,1,4.08,7.16,71.8,3.86,7.21,236.5,4.17,0.59,6.1,648,160
2203877,2000,1,3,18,48,6,83,96.29,123,12,-1047,1.24,0.09,-10.02,5,0,1,0,66,352,1488.24,36.62,861.84,35.72,14.61,6262,9498,-8851,-422.32,0.48,0,0.02,0.12,-0.94,-3.05,1.16,0.311,1,4.09,7.17,72.1,3.91,7.18,286.5,4.17,0.59,6.4,651,301
2213904,2000,1,3,18,48,16,83,96.38,125,6,-1047,1.2,0.04,-10.04,5,0,1,0,66,352,1488.36,36.69,861.86,35.76,14.51,9334,9634,9257,-422.32,0.48,0,0.02,0.12,-0.94,-3.11,1.22,-0.241,1,4.09,7.16,72.5,3.91,7.18,243.5,4.17,0.66,6.8,654,203
2223937,2000,1,3,18,48,26,83,94.12,124,7,-1048,1.22,0.08,-10.07,5,0,1,0,66,352,1488.24,36.71,861.88,35.74,14.54,7798,9660,1339,-422.32,0.48,0,0.02,0.12,-0.94,-3.05,1.16,-0.181,1,4.09,7.18,72.3,3.91,7.2,293.3,4.17,0.61,6.1,657,203
2233970,2000,1,3,18,48,36,83,106.47,127,7,-1039,1.24,0.06,-10.03,5,0,1,0,66,351,1487.79,36.69,861.92,35.76,14.62,10102,9713,-16529,-422.32,0.48,0,0.02,0.12,-0.94,-3.05,1.16,-0.491,1,4.09,7.15,72.2,3.88,7.2,157.4,4.17,0.68,6.7,660,258
2244063,2000,1,3,18,48,46,83,107.04,127,8,-1047,1.24,0.08,-10.03,5,0,1,0,66,351,1488.36,36.66,861.85,35.77,14.66,11126,9612,-5752,-422.32,0.48,0,0.02,0.12,-0.94,-3.05,1.22,-0.311,1,4.09,7.17,72.1,3.85,7.18,282.3,4.17,,6.2,663,258
2254092,2000,1,3,18,48,57,83,108.75,129,9,-1049,1.23,0.06,-10.02,5,0,1,0,66,351,1488.23,36.79,861.92,35.78,14.67,11894,9593,-10348,-422.32,0.48,0,0.02,0.12,-0.94,-3.11,1.22,-0.371,1,4.09,7.16,72,3.85,7.21,211.9,4.17,0.65,6.9,666,160
2264125,2000,1,3,18,49,7,83,108.72,119,8,-1041,1.18,0.06,-10.07,5,0,1,0,66,351,1489.11,36.83,861.86,35.76,14.14,9590,9363,-4555,-422.32,0.48,0,0.02,0.12,-0.94,-3.11,1.22,-0.311,1,4.08,7.21,72,3.92,7.18,301.1,4.17,0.62,6.2,669,160
2274123,2000,1,3,18,49,17,83,107.67,129,11,-1046,1.24,0.13,-10.05,5,0,1,0,66,350,1488.47,36.78,861.89,35.79,14.36,12406,9253,3783,-422.32,0.48,0,0.02,0.12,-0.94,-3.05,1.16,-0.181,1,4.08,7.17,72,3.76,7.23,243.7,4.17,0.67,6.6,672,250
2284146,2000,1,3,18,49,27,83,105.37,126,10,-1049,1.24,0.05,-10.03,5,0,1,0,66,351,1489.34,36.77,861.81,35.81,14.34,14198,9392,-17734,-422.32,0.48,0,0.02,0.11,-0.94,-3.05,1.16,0.061,1,4.08,7.18,72,3.89,7.18,222.8,4.17,0.67,6.7,675,213
2294165,2000,1,3,18,49,37,83,109.89,130,12,-1050,1.2,0.14,-10.03,5,0,1,0,66,351,1489.77,36.78,861.78,35.8,14.37,13686,9424,-6964,-422.32,0.48,0,0.02,0.12,-0.94,-3.11,1.1,0.061,1,4.08,7.22,71.7,3.84,7.17,219.3,4.17,0.72,6.7,678,248
2304176,2000,1,3,18,49,47,83,98.15,114,8,-1051,1.12,,-10.06,5,0,1,0,66,352,1489.22,36.82,861.84,35.81,14.46,14454,9628,-8443,-422.32,0.48,0,0.03,0.12,-0.94,-3.17,1.16,-0.061,1,4.08,7.18,71.7,3.92,7.16,180.8,4.17,0.7,7,681,202
2314199,2000,1,3,18,49,57,83,111.27,84,45,-1083,1.47,-0.05,-9.71,5,0,1,0,66,352,1489.8,36.87,861.81,35.83,14.54,16502,9693,-28100,-422.32,0.48,0,0.02,0.12,-0.94,-2.99,1.16,0.791,1,4.08,7.15,72.4,3.85,7.17,184.1,4.17,0.68,6.39,684,159
2324221,2000,1,3,18,50,7,83,95.78,129,12,-1053,1.27,0.11,-10.09,5,0,1,0,66,352,1489.69,36.83,861.8,35.84,14.06,17270,9102,-8961,-422.32,0.48,0,0.02,0.12,-0.94,-3.05,1.1,0.371,1,4.08,7.18,71.6,3.8,7.2,176.9,4.17,0.65,6.9,687,205
2334222,2000,1,3,18,50,17,83,108.94,135,15,-1045,1.32,0.15,-10.03,5,0,1,0,67,352,1488.96,36.82,861.86,35.82,14.08,15990,9274,-21487,-422.32,0.48,0,0.02,0.12,-0.94,-3.05,1.16,1,1,4.08,7.16,71.6,3.92,7.17,206.5,4.17,0.61,6.2,690,215
2344235,2000,1,3,18,50,27,83,107.95,118,3,-1049,1.15,0.05,-10.05,5,0,1,0,66,352,1489.78,36.8,861.78,35.84,13.8,17526,8985,-26281,-422.32,0.48,0,0.02,0.13,-0.94,-3.11,1.22,-0.671,1,4.08,7.16,72,3.83,7.16,206.2,4.16,0.7,7.2,693,213
2354255,2000,1,3,18,50,37,83,107.11,117,12,-1050,1.14,0.11,-10.07,5,0,1,0,66,352,1489.66,36.82,861.8,35.83,13.64,16758,8940,14572,-422.32,0.48,0,0.03,0.12,-0.94,-3.05,1.16,0.311,1,4.08,7.19,71.7,3.9,7.21,154.3,4.17,0.67,6.5,696,170
2364311,2000,1,3,18,50,47,83,107.33,120,3,-1047,1.16,-0.01,-10.06,5,0,1,0,66,352,1489.94,36.83,861.78,35.84,13.83,17270,9102,17257,-422.32,0.48,0,0.02,0.12,-0.94,-3.17,1.16,-0.491,1,4.08,7.17,72.2,3.82,7.2,173.9,4.17,0.7,6.8,699,170
2374410,2000,1,3,18,50,57,83,108.5,120,6,-1048,1.15,0.09,-10,5,0,1,0,66,352,1488.89,36.78,861.85,35.83,13.76,16502,9181,-14276,-422.32,0.48,0,0.02,0.12,-0.94,-3.11,1.22,-0.491,1,4.08,7.24,71.6,3.84,7.18,169.1,4.17,0.68,6.6,702,215
2384486,2000,1,3,18,51,7,83,107.78,135,8,-1051,1.27,0.11,-10.02,5,0,1,0,66,352,1489.45,36.75,861.79,35.85,13.69,18294,9034,529,-422.32,0.48,0,0.02,0.12,-0.94,-2.99,1.16,-0.181,1,4.08,7.18,71.8,3.86,7.21,125.2,4.17,0.66,,705,258
2394494,2000,1,3,18,51,17,83,108.43,152,14,-1046,1.45,0.13,-9.99,5,0,1,0,67,352,1490.03,36.83,861.77,35.84,13.67,17526,8985,-31483,-422.32,0.48,0,0.02,0.11,-0.94,-2.99,0.92,-2.381,1,4.08,7.17,72.1,3.91,7.17,246.9,4.17,0.65,6.1,708,216
2404505,2000,1,3,18,51,27,83,106.18,141,5,-1051,1.36,0.05,-10.02,5,0,1,0,66,352,1489.59,36.79,861.8,35.85,13.91,18550,9060,22174,-422.32,0.48,0,0.02,0.12,-0.94,-2.87,1.1,3.661,1,4.09,7.17,71.6,3.84,7.2,180.9,4.17,0.68,6.8,711,260
2414536,2000,1,3,18,51,37,83,109.48,129,4,-1047,1.27,0.01,-10.08,5,0,1,0,66,352,1489.48,36.84,861.83,35.85,13.83,18550,9060,29288,-422.32,0.48,0,0.02,0.12,-0.94,-3.11,1.16,-0.121,1,4.08,7.21,72.4,3.82,7.19,226.6,4.17,0.67,6.7,714,172
2424541,2000,1,3,18,51,47,83,105.38,133,5,-1049,1.28,0.1,-10.01,5,0,1,0,66,352,1489.67,36.8,861.79,35.88,14.15,21366,9421,-3781,-422,0.48,0,0.02,0.12,-0.94,-3.05,1.22,-1.041,1,4.08,7.14,71.7,3.88,7.16,225,4.17,0.66,6.5,717,215
2434639,2000,1,3,18,51,57,83,98.27,136,9,-1046,1.28,0.08,-9.99,5,0,1,0,42,352,1488.12,36.79,861.93,35.85,13.68,18294,9034,-10746,-422.32,0.48,0,0.02,0.12,-0.94,-3.05,1.16,0.241,1,4.08,7.18,71.9,3.86,7.18,216.6,4.17,0.63,6.6,720,215
2444662,2000,1,3,18,52,7,83,109.55,124,-1,-1046,1.15,0.05,,5,0,1,0,66,352,1489.33,36.76,861.81,35.89,13.77,22134,9016,7747,-422.32,0.48,0,0.02,0.12,-0.94,-3.11,1.22,-1.891,1,4.08,7.22,71.8,3.82,7.18,242.3,4.17,0.6,6,723,258
2454736,2000,1,3,18,52,17,83,108.27,109,2,-1052,1.05,-0.01,-10.01,5,0,1,0,67,352,1488.88,36.74,861.84,35.9,13.58,23158,8773,19401,-422.32,0.48,0,0.02,0.11,-0.94,-3.17,1.22,1.281,1,4.08,7.16,71.6,3.84,7.21,191.5,4.17,0.58,5.8,726,258
2464778,2000,1,3,18,52,27,83,96.25,141,6,-1046,1.35,0.07,-10,5,0,1,0,43,352,1488.9,36.79,861.86,35.87,13.66,20086,8898,19197,-422.32,0.48,0,0.02,0.12,-0.94,-2.99,1.16,0.121,1,4.08,7.16,71.7,3.92,7.18,220.2,4.17,0.66,6.6,729,170
2474811,2000,1,3,18,52,37,83,108.44,125,7,-1045,1.27,0.11,-10.28,5,0,1,0,67,351,1489.28,36.88,861.86,35.88,13.85,20854,9135,12664,-422.32,0.48,0,0.02,0.12,-0.94,-3.05,1.22,-0.181,1,4.08,7.21,71.8,3.88,7.17,287.7,4.17,0.76,7.6,732,160
2484832,2000,1,3,18,52,47,83,110.98,134,5,-1051,1.26,0.1,-10.05,5,0,1,0,66,351,1490.39,36.85,861.75,35.93,14.17,26486,9420,29767,-422.32,0.48,0,0.01,0.11,-0.94,-2.99,0.92,-0.121,1,4.08,7.22,71.7,3.84,7.23,245.4,4.17,0.62,6.4,735,172
2494943,2000,1,3,18,52,57,83,106.84,126,19,-1046,1.15,0.18,-9.95,5,0,1,0,43,350,1489.4,36.79,861.81,35.9,14.23,23158,9285,6001,,0.48,0,0.02,0.12,-0.94,-3.17,1.22,0.371,1,4.08,7.18,71.8,3.84,7.2,203.8,4.17,0.63,7,738,260
2504974,2000,1,3,18,53,7,83,108.59,118,6,-1049,1.09,0.09,-10.06,5,0,1,0,66,350,1491.17,36.93,861.71,35.93,14.14,25718,9375,-8396,-422.32,0.48,0,0.02,0.12,-0.94,-3.17,1.16,0.001,1,4.08,7.2,71.7,3.84,7.17,200.6,4.15,15.15,117.4,741,160
2515001,2000,1,3,18,53,17,83,96.99,136,-1,-1048,1.29,0.04,-10.03,5,0,1,0,66,350,1490.2,36.94,861.8,35.97,14.14,29814,9436,18483,-422.32,0.48,0,0.02,0.13,-0.94,-2.99,1.22,1.951,1,4.08,7.21,72.4,3.89,7.18,154.2,4.17,0.6,6,744,205
2525003,2000,1,3,18,53,27,83,106.67,143,9,-1042,1.37,0.11,-10.07,5,0,1,0,43,350,1488.99,36.97,861.93,35.97,14.27,30326,9406,-6003,-422.32,0.48,0,0.02,0.11,-0.94,-3.05,1.1,0.491,1,4.08,7.14,71.9,3.84,7.17,200.1,4.17,0.61,6.4,747,128
2535004,2000,1,3,18,53,37,83,111.75,171,3,-1046,1.66,0.06,-10.06,5,0,1,0,66,350,1492.5,36.95,861.59,36,14.4,-32394,9387,-2849,-422.32,0.48,0,0.01,0.11,-0.94,-2.75,1.22,-2.321,1,4.08,7.21,71.6,3.89,7.15,172.5,4.17,0.67,6.9,750,170
2545006,2000,1,3,18,53,47,83,106.21,110,3,-1052,1.02,-0.07,-10.04,5,0,1,0,66,350,1492.25,36.93,861.61,36.03,14.29,-30090,9281,3483,-422.32,0.48,0,0.01,0.11,-0.94,-3.36,1.46,0.061,1,,7.21,72,3.81,7.19,235.1,4.17,0.64,6.1,753,213
2555006,2000,1,3,18,53,57,83,104.84,131,4,-1044,1.28,0,-9.96,5,0,1,0,42,350,1491.19,36.98,861.73,36.04,14.44,-29066,9349,-18693,-422.32,0.48,0,0.01,0.12,-0.94,-2.99,0.92,-0.921,1,4.08,7.21,71.7,3.8,7.18,250,4.17,0.7,6.8,756,216
2565062,2000,1,3,18,54,8,83,104.36,120,-4,-1046,1.15,0,-10.02,5,0,1,0,66,349,1490.81,36.99,861.77,36.05,14.41,-27530,9245,-17946,-422.32,0.48,0,0.02,0.12,-0.94,-3.17,1.28,-0.851,1,4.08,7.21,72.4,3.91,7.19,293.1,4.17,0.66,6.4,759,215
2575155,2000,1,3,18,54,18,83,109.9,148,12,-1053,1.33,0.14,-10.08,5,0,1,0,66,349,1492.23,37.01,861.65,36.06,14.42,-26506,9312,238,-422.32,0.48,0,0.03,0.11,-0.94,-2.99,1.16,-1.651,1,4.08,7.21,71.6,3.82,7.17,187.5,4.17,0.63,6.3,762,170
2585190,2000,1,3,18,54,28,83,106.36,130,2,-1048,1.26,0.02,-10.05,5,0,1,0,66,350,1491.36,36.99,861.72,36.09,14.34,-24202,9261,7356,-422.32,0.48,0,0.01,0.11,-0.94,-3.11,1.28,1.101,1,4.08,7.17,72.1,3.93,7.2,253.4,4.17,0.62,6.3,765,260
2595233,2000,1,3,18,54,38,83,109.38,119,7,-1049,1.17,0.05,-10.01,5,0,1,0,66,349,1490.08,37.04,861.86,36.09,14.36,-24202,9261,3783,-422.32,0.48,0,0.02,0.12,-0.94,-3.17,1.1,2.011,1,4.08,7.16,72.1,3.93,7.16,196.9,4.17,0.65,6.4,768,170
2605236,2000,1,3,18,54,48,83,100.32,129,11,-1046,1.24,0.04,-10.03,5,0,1,0,67,349,1490.68,37.06,861.81,36.12,14.37,-20874,9219,-31026,-422.32,0.48,0,0.02,0.11,-0.94,-3.05,1.16,-1.161,1,4.08,7.17,72.3,3.85,7.23,239.4,4.17,0.65,6.6,771,213
2615326,2000,1,3,18,54,58,83,109.64,127,1,-1047,1.21,0.05,-9.98,5,0,1,0,67,348,1490.37,37.09,861.85,36.11,14.48,-22154,9620,-12522,-422.32,0.48,0,0.02,0.13,-0.94,-3.05,1.16,-1.041,1,4.08,7.19,72,3.89,7.22,178.8,4.17,0.64,6.6,774,170
2625384,2000,1,3,18,55,8,83,99.03,125,11,-1045,1.19,0.06,-10,5,0,1,0,67,349,1490.62,37.08,861.83,36.14,14.4,26177,-2293,8720,-422.32,0.48,0,0.02,0.12,-0.94,-3.11,1.1,0.981,1,4.08,7.22,72,3.88,7.18,170,4.17,0.62,6.3,777,213
2635425,2000,1,3,18,55,18,83,106.86,120,6,-1046,1.14,0.08,-10.06,5,0,1,0,67,349,1490.27,37.08,861.86,36.15,14.33,-18058,9431,20657,-422.32,,0,0.02,0.12,-0.94,-3.11,1.16,-0.241,1,4.08,7.17,71.9,3.87,7.25,223.4,4.17,0.68,7.2,780,215
2645448,2000,1,3,18,55,28,83,108.65,126,8,-1049,1.23,0.06,-10.05,5,0,1,0,67,348,1491.11,37.13,861.8,36.16,14.4,-17034,9235,8160,-422.32,0.48,0,0.02,0.12,-0.94,-2.99,1.16,-1.531,1,4.08,7.15,72.2,3.86,7.18,253.4,4.17,0.68,6.5,783,172
2655496,2000,1,3,18,55,38,83,109.08,123,5,-1050,1.18,0.08,-10.06,5,0,1,0,0,348,1490.72,37.15,861.85,36.17,14.43,-16010,9366,4083,-422.32,0.48,0,0.02,0.12,-0.94,-3.17,1.34,-0.431,1,4.08,7.21,72.1,3.88,7.2,201.5,4.17,0.64,6.9,786,170
2665541,2000,1,3,18,55,48,83,109.19,134,10,-1047,1.26,0.06,-10.02,5,0,1,0,67,348,1490.63,37.14,861.85,36.22,14.42,-11658,9350,238,-422.32,0.48,0,0.01,0.12,-0.94,-3.11,1.16,3.601,1,4.08,7.15,72.3,3.85,7.17,264.4,4.17,0.58,6,789,258
1088738207,2000,1,3,18,55,58,83,107.71,132,4,-1047,1.24,0.04,-10.01,5,0,1,0,67,348,1491.67,37.17,861.77,36.19,14.34,-14730,9217,7356,-422.32,0.48,0,0.02,0.12,-0.94,-2.99,0.92,0.791,1,4.08,7.17,71.8,3.86,7.16,244.3,4.16,0.67,6.4,792,172
2685642,2000,1,3,18,56,8,83,109.85,126,5,-1045,1.24,0.06,-10.05,5,0,1,0,67,349,1491.94,37.26,861.79,36.24,14.17,-9354,9230,-20659,-422.32,0.48,0,0.02,0.12,-0.94,-3.05,1.22,-0.371,1,4.08,,72,3.78,7.19,216.8,4.17,0.61,6.3,795,162
2695671,2000,1,3,18,56,18,83,106.37,143,8,-1046,1.38,0.08,-9.99,5,0,1,0,67,349,1491.41,37.16,861.79,36.26,14.17,-7818,9232,29767,-422.32,0.48,0,0.02,0.11,-0.94,-3.11,1.28,-0.491,1,4.08,7.18,72.1,3.87,7.18,176,4.17,0.69,6.9,798,258
2705700,2000,1,3,18,56,28,83,97.84,131,6,-1047,1.22,0.02,-10.02,5,0,1,0,67,349,1491.72,37.22,861.79,36.28,14.1,-6026,9368,-32226,-422.32,0.48,0,0.02,0.11,-0.94,-3.11,1.22,-0.431,1,4.08,7.19,72.3,3.93,7.21,204.8,4.17,0.67,6.4,801,215
2715736,2000,1,3,18,56,38,83,97.21,120,8,-1044,1.18,0.04,-10.01,5,0,1,0,67,349,1491.69,37.23,861.79,36.25,14.12,-8330,9418,9516,-422.32,0.48,0,0.02,0.12,-0.94,-3.05,1.16,-0.241,1,4.08,7.17,71.8,3.89,7.19,174.8,4.17,0.63,6.2,804,170
2725746,2000,1,3,18,56,48,83,96.83,126,8,-1048,1.23,0.08,-9.99,5,0,1,0,67,348,1491.89,37.25,861.79,36.28,14.09,-6282,9398,2583,-422.32,0.48,0,0.02,0.12,-0.94,-3.05,1.16,-0.241,1,4.08,7.24,71.9,3.82,7.16,205.3,4.17,0.63,6.3,807,213
2735759,2000,1,3,18,56,58,83,108.49,124,4,-1046,1.23,0.05,-10.06,5,0,1,0,67,348,1491.76,37.27,861.81,36.29,13.98,-5258,9163,-8757,-422.32,0.48,0,0.02,0.12,-0.94,-3.05,1.16,-0.611,1,4.08,7.22,71.8,3.87,7.18,129.5,4.16,0.66,7,810,248
2745815,2000,1,3,18,57,8,83,108.32,127,5,-1055,1.2,0.05,-10.05,5,0,1,0,67,348,1492.55,37.26,861.73,36.3,14.15,-4234,9231,-16326,-422.32,0.48,0,0.02,0.12,-0.94,-3.05,1.28,0.731,1,4.08,7.2,71.7,3.93,7.16,253.3,4.17,0.61,6.4,813,215
2755846,2000,1,3,18,57,18,83,110.19,129,10,-1046,1.24,0.07,-10.04,5,0,1,0,67,348,1492.8,37.32,861.73,36.29,13.96,-4490,9022,21954,-422.32,0.48,0,0.03,0.11,-0.94,-3.11,1.16,0.181,1,4.08,7.16,71.5,3.92,7.13,246,4.16,0.6,6,816,204
2765867,2000,1,3,18,57,28,83,109.97,135,11,-1045,1.29,0.09,-9.98,5,0,1,0,67,348,1492.07,37.28,861.78,36.29,13.84,-5258,9163,-30608,-422.32,0.48,0,0.02,0.12,-0.94,-3.05,1.16,-0.431,1,4.08,7.2,72,3.93,7.21,163.6,4.17,0.65,6.6,819,215
2775869,2000,1,3,18,57,38,83,95.31,120,2,-1050,1.13,0.02,-9.94,5,0,1,0,67,349,1492.21,37.32,861.79,36.31,13.66,-2698,8855,19197,-422.32,0.48,,0.02,0.12,-0.94,-3.11,1.1,0.241,1,4.08,7.2,71.5,3.87,7.18,265.5,4.17,0.7,6.9,822,203
2785906,2000,1,3,18,57,48,83,109.68,122,-1,-1043,1.19,0.05,-9.98,5,0,1,0,67,349,1492.32,37.27,861.76,36.31,13.57,-2954,8870,-24126,-422.32,0.48,0,0.02,0.12,-0.94,-3.05,1.1,-0.061,1,4.08,7.2,72,3.88,7.22,228.7,4.17,0.68,6.8,825,215
2795984,2000,1,3,18,57,58,83,107.9,126,11,-1047,1.22,0.1,-10.07,5,0,1,0,67,349,1492.2,37.24,861.75,36.3,13.55,-4234,8719,2737,-422.32,0.48,0,0.02,0.12,-0.94,-3.11,1.22,-0.181,1,4.08,7.18,71.5,3.88,7.16,194.8,4.17,0.61,6.4,828,258
2806018,2000,1,3,18,58,9,83,99.32,125,6,-1044,1.21,0.06,-10.06,5,0,1,0,67,348,1492.34,37.26,861.75,36.3,13.44,-4234,8719,-18583,-422.32,0.48,0,0.02,0.12,-0.94,-3.05,1.16,-0.491,1,4.08,7.17,71.7,3.84,7.15,158.7,4.16,0.71,6.8,831,258
2816049,2000,1,2,18,58,19,83,109.45,118,9,-1045,1.16,0.1,-10.02,5,0,1,0,67,348,1492.84,37.25,861.7,36.33,13.68,-906,8991,-21750,-422.32,0.48,0,0.03,0.13,-0.94,-2.99,1.1,-0.121,1,4.08,7.2,72,3.82,7.2,161,4.17,0.67,6.9,834,258
2826055,2000,1,3,18,58,29,83,108.26,120,12,-1047,1.2,0.11,-10,5,0,1,0,67,348,1492.8,37.33,861.74,36.33,13.91,-1418,9145,-29536,-422.32,0.48,0,0.03,0.12,-0.94,-3.05,1.1,-0.241,1,4.08,7.2,,3.88,7.18,150,4.17,0.61,6.1,837,170
2836113,2000,1,3,18,58,39,83,98.29,122,12,-1046,1.22,0.08,-10.05,5,0,1,0,67,347,1492.32,37.28,861.76,36.33,13.95,-1418,9145,30392,-422.32,0.48,0,0.02,0.12,-0.94,-3.11,1.22,-0.181,1,4.08,7.2,72,3.91,7.14,240.4,4.17,0.59,6,840,215
2846144,2000,1,3,18,58,49,83,107.01,130,-4,-1047,1.23,-0.08,-10.04,5,0,1,0,67,346,1493.97,37.4,861.66,36.35,14.05,1143,9168,6395,-422.32,0.48,0,0.01,0.12,-0.94,-2.99,1.16,-0.611,1,4.08,7.18,72.2,3.87,7.16,187.9,4.16,0.68,6.8,843,160
2856144,2000,1,3,18,58,59,83,106.94,120,15,-1054,1.2,0.11,-10.05,5,0,1,0,67,346,1495.03,37.41,861.57,36.37,13.94,2679,9167,2996,-422.32,0.48,0,0.01,0.12,-0.94,-3.17,1.16,-0.311,1,4.08,7.15,72,3.79,7.23,195,4.17,0.62,6.4,846,160
2866190,2000,1,3,18,59,9,83,108.28,124,-4,-1050,1.17,-0.03,-10.03,5,0,1,0,67,346,,37.32,861.58,36.33,13.96,-1162,9096,21954,-422.32,0.48,0,0.02,0.12,-0.94,-3.11,1.16,-2.501,1,4.08,7.22,72.1,3.88,7.18,304.1,4.16,0.68,7,849,258
2876211,2000,1,3,18,59,19,83,106.13,116,9,-1053,1.12,0.09,-10.07,5,0,1,0,67,345,1494.93,37.42,861.58,36.37,13.94,2935,9214,15029,-422.32,0.48,0,0.02,0.13,-0.94,-3.05,1.22,0.731,1,4.08,7.16,72.2,3.9,7.2,208.8,4.17,0.6,5.9,852,159
2886238,2000,1,3,18,59,29,83,97.03,129,-8,-1042,1.23,-0.07,-10.06,5,0,1,0,67,345,1494.19,37.43,861.65,36.39,14.04,4727,9013,-28430,-422.32,0.48,0,0.01,0.13,-0.94,-2.93,1.34,-0.431,1,4.08,7.2,72.1,3.87,7.19,189.5,4.17,0.65,6.6,855,202
2896265,2000,1,3,18,59,39,83,106.7,128,10,-1046,1.21,0.11,-10.03,5,0,1,0,67,345,1493.36,37.48,861.75,36.4,14.14,5495,9378,-24008,-422.32,0.48,0,0.02,0.13,-0.94,-2.99,1.22,0.061,1,4.08,7.19,71.8,3.92,7.16,153.3,4.17,0.62,6.1,858,159
2906269,2000,1,3,18,59,49,83,96.74,124,11,-1050,1.24,0.11,-10.07,5,0,1,0,67,345,1493.32,37.45,861.74,36.43,14.19,8567,9379,25684,-422.32,0.48,0,0.03,0.14,-0.94,-2.99,1.16,-0.551,1,4.08,7.2,72.2,3.9,7.18,213,4.17,0.63,6.1,861,203
2916315,2000,1,3,18,59,59,83,105.91,115,6,-1047,1.07,0.02,-10.05,5,0,1,0,67,345,1493.72,37.42,861.69,36.43,14.18,8823,9456,-12977,-422.32,0.48,0,,0.12,-0.94,-3.23,1.1,0.371,1,4.08,7.14,72.3,3.9,7.2,271.5,4.17,0.63,6.3,864,213
2926327,2000,1,3,19,0,9,83,105.93,135,4,-1047,1.29,0.04,-10.01,5,0,1,0,67,345,1493.66,37.42,861.7,36.45,14.1,10103,9221,-19681,-422.32,0.48,0,0.02,0.12,-0.94,-3.05,1.28,-1.101,1,4.08,7.17,72.3,3.84,7.22,174.4,4.17,0.64,6.3,867,258
2936385,2000,1,3,19,0,19,83,106.99,127,6,-1052,1.24,0.06,-10.05,5,0,1,0,67,346,1493.63,37.46,861.72,36.47,14.05,12663,9184,6395,-422.32,0.48,0,0.02,0.12,-0.94,-3.05,1.16,-0.431,1,4.08,7.18,72,3.88,7.18,203.6,4.16,0.65,6.5,870,213
2946424,2000,1,3,19,0,29,83,95.25,128,14,-1047,1.17,0.11,-10.02,5,0,1,0,67,345,1493.43,37.48,861.75,36.47,14.17,11895,9357,-20659,-422.32,0.48,0,0.02,0.12,-0.94,-3.11,1.16,-0.371,1,4.08,7.2,72.2,3.91,7.21,209.5,4.17,0.6,6.1,873,213
2956472,2000,1,3,19,0,34,64,94.09,132,2,-1044,1.26,0.07,-10.04,5,0,1,0,67,346,1494.48,37.49,861.65,36.48,14.23,12919,9395,-7564,-422.32,0.48,0,0.02,0.12,-0.94,-3.05,1.04,-1.161,1,4.08,7.14,71.7,3.91,7.22,224.1,4.17,0.62,5.8,876,213
2966564,2000,1,3,19,0,49,83,105.49,121,4,-1049,1.17,0.07,-10.01,5,0,1,0,67,346,1494.3,37.48,861.67,36.48,14.16,13431,9237,17734,-422.32,0.48,0,0.02,0.12,-0.94,-3.05,0.98,0.181,1,4.08,7.21,71.8,,7.16,212.2,4.16,0.59,6,879,215
2976579,2000,1,3,19,0,59,83,106.59,134,7,-1046,1.23,0.08,-9.93,5,0,1,0,67,346,1493.29,37.52,861.78,36.52,14.34,16759,9240,-14410,-422.32,0.48,0,0.03,0.11,-0.94,-3.17,1.4,0.001,1,4.08,7.19,71.6,3.9,7.19,174.4,4.17,0.64,6.1,882,170
2986627,2000,1,3,19,1,9,83,96.95,130,2,-1041,1.24,-0.02,-9.97,5,0,1,0,44,345,1492.66,37.49,861.82,36.53,14.31,17783,9436,-6492,-422.32,0.48,0,0.01,0.12,-0.94,-2.99,1.22,-0.061,1,4.08,7.21,71.7,3.93,7.18,198.7,4.16,0.63,6.5,885,258
2996668,2000,1,3,19,1,19,83,98.4,132,-6,-1042,1.25,-0.04,-9.99,5,0,1,0,67,345,1493.83,37.52,861.73,36.52,14.28,17527,9453,9108,-422.32,0.48,0,0,0.12,-0.94,-3.05,1.16,2.141,1,4.08,7.17,72,3.89,7.17,208.5,4.17,0.61,5.8,888,215
3006693,2000,1,3,19,1,29,83,97.3,127,5,-1038,1.24,-0.01,-10.01,5,0,1,0,67,345,1494.06,,861.71,36.53,14.18,17783,9436,-15790,-422.32,0.48,0,0.02,0.12,-0.94,-3.11,1.22,0.241,1,4.08,7.18,72.5,3.89,7.21,185.8,4.17,0.62,6.4,891,215
3016732,2000,1,3,19,1,39,83,104.9,124,6,-1048,1.22,0.1,-10.01,5,0,1,0,44,345,1492.67,37.52,861.83,36.54,14.09,19063,9458,26645,-422.32,0.48,0,0.01,0.12,-0.94,-3.17,1.28,0.311,1,4.08,7.15,72.3,3.94,7.2,304.8,4.16,0.63,6.1,894,258
3026810,2000,1,3,19,1,49,83,105.75,125,11,-1044,1.28,0.1,-9.98,5,0,1,0,67,345,1493.34,37.52,861.77,36.56,14.08,20599,9322,-23796,-422.32,0.48,0,0.03,0.12,-0.94,-3.17,0.73,-2.011,1,4.08,7.17,71.6,3.92,7.19,218,4.16,0.59,5.9,897,258
3036829,2000,1,3,19,1,59,83,107.26,124,10,-1053,1.14,0.11,-10.02,5,0,1,0,67,345,1494.53,37.53,861.67,36.56,14.05,20855,9051,19448,-422.32,0.48,0,0.02,0.12,-0.94,-3.05,1.1,0.311,1,4.08,7.16,72.1,3.92,7.19,172.7,4.16,0.65,6.6,900,258
3046854,2000,1,3,19,2,9,83,108.95,128,5,-1043,1.25,0.05,-10.05,5,0,1,0,44,344,1493.2,37.65,861.84,36.58,14.16,23159,9393,-7360,-422.32,0.48,0,0.02,0.12,-0.94,-2.99,1.1,0.181,1,4.08,7.24,71.8,3.8,7.2,232.8,4.16,0.64,6.6,903,160
3056883,2000,1,3,19,2,19,83,106.13,129,-5,-1041,1.21,-0.04,-9.94,5,0,1,0,67,345,1496.07,37.62,861.56,36.6,13.96,25207,9165,21954,-422.32,0.48,0,0.01,,-0.94,-2.75,1.34,3.111,1,4.08,7.19,72,3.83,7.18,161.4,4.16,0.6,6,906,170
3066984,2000,1,3,19,2,30,83,109.57,140,28,-1044,1.4,0.29,-10.03,5,0,1,0,67,344,1495.42,37.55,861.6,36.58,14.13,22647,9427,6960,-422.32,0.48,0,0.05,0.13,-0.94,-2.99,0.85,-2.621,1,4.08,7.2,72.5,3.9,7.18,227.5,4.17,0.61,6.4,909,258
3077009,2000,1,3,19,2,40,83,108.44,132,8,-1047,1.27,0.06,-10.04,5,0,1,0,43,344,1493.98,37.64,861,36.61,13.85,25719,9067,32117,-422.32,0.48,0,0.02,0.13,-0.94,-2.93,1.04,-0.551,1,4.08,7.17,71.7,3.81,7.18,274.3,4.16,0.63,6,912,258
3087040,2000,1,3,19,2,50,83,98.58,154,10,-1041,1.46,0.1,-9.98,5,0,1,0,67,344,1494.56,37.67,861.72,36.61,14,25975,9050,-12840,-422.32,0.48,0,0.02,0.11,-0.94,-2.99,1.04,2.141,1,4.08,7.17,72.1,3.88,7.19,155.3,4.17,0.61,5.9,915,205
3097069,2000,1,3,19,3,0,83,7.18,127,11,-1048,1.24,0.12,-10.05,5,0,1,0,67,344,1494.38,37.73,861.77,36.65,14.18,29303,9358,-3245,-422.32,0.48,0,0.02,0.12,-0.94,-2.93,1.04,-0.371,1,4.08,7.21,71.8,3.84,7.22,205.4,4.16,0.6,6,918,160
3107072,2000,1,3,19,3,10,83,108.17,120,-6,-1050,1.14,-0.05,-10.06,5,0,1,0,44,343,1495.64,37.72,861.65,36.68,14,32119,9120,14557,-422.32,0.48,0,0.03,0.13,-0.94,-2.81,1.16,-0.851,1,4.08,7.17,72.3,3.86,,214.5,4.16,0.68,6.9,921,161
3117101,2000,1,3,19,3,20,83,109.91,125,-2,-1048,1.18,0.01,-10.05,5,0,1,0,67,343,1495.7,37.7,861.63,36.66,13.78,30071,8985,-27062,-422.32,0.48,0,0.01,0.12,-0.94,-3.05,1.34,0.001,1,4.08,7.19,72,3.77,7.18,236.2,4.16,0.63,6.4,924,247
3127101,2000,1,3,19,3,30,83,108.82,120,4,-1044,1.16,0.02,-10.03,5,0,1,0,67,343,1494.85,37.72,861.72,36.69,13.65,-32137,8716,25842,-422.32,0.48,0,0.02,0.13,-0.94,-3.11,1.22,-2.561,1,4.08,7.18,72.1,3.87,7.2,267,4.16,0.7,6.5,927,172
3137150,2000,1,3,19,3,40,83,103.1,132,3,-1050,1.26,0.05,-10.04,5,0,1,0,67,343,1496.08,37.68,861.59,36.72,13.92,-29577,8979,7079,-422.32,0.48,0,0.02,0.12,-0.94,-2.93,0.79,3.541,1,4.08,7.15,72.4,3.83,7.21,260.4,4.17,0.61,6.2,930,259
3147175,2000,1,3,19,3,50,83,107.66,146,1,-1045,1.28,-0.07,-9.92,5,0,1,0,67,343,1495.15,37.72,,36.67,14.02,31351,9015,14825,-422.32,0.48,0,0.01,0.12,-0.94,-2.99,1.34,-2.501,1,4.08,7.18,72,3.75,7.16,303,4.17,0.64,6.5,933,215
3157235,2000,1,3,19,4,0,83,107.14,126,8,-1052,1.24,0.07,-10.02,5,0,1,0,67,343,1495.59,37.69,861.64,36.7,14.02,-31113,9160,14825,-422.32,0.48,0,0.01,0.13,-0.94,-3.05,1.16,0.671,1,4.08,7.2,71.9,3.88,7.15,160.2,4.17,0.6,6.2,936,258
3167254,2000,1,3,19,4,10,83,108.97,128,8,-1044,1.24,0.11,-10.02,5,0,1,0,67,343,1494.8,37.73,861.73,36.75,14.06,-26505,9364,-8704,-422.32,0.48,0,0.02,0.12,-0.94,-3.05,1.1,1.101,1,4.08,7.21,72.1,3.91,7.18,178.1,4.17,0.59,5.9,939,213
3177277,2000,1,3,19,4,20,83,107.33,139,-1,-1051,1.34,-0.01,-10.02,5,0,1,0,67,343,1496.62,37.79,861.59,36.75,13.97,-26249,9125,-28984,-422.32,0.48,0,0.01,0.12,-0.94,-2.99,1.16,-1.041,1,4.08,7.21,72,3.83,7.18,221.55,4.17,0.62,6.3,942,172
3187292,2000,1,3,19,4,30,83,108.69,114,4,-1052,1.14,0.08,-9.97,5,0,1,0,67,342,1496.25,37.79,861.62,36.75,13.96,-26249,9125,25795,-422.32,0.48,0,0.02,0.12,-0.94,-3.05,1.1,0.611,1,4.08,7.19,71.8,3.9,7.2,194.9,4.16,0.67,6.8,945,172
3197323,2000,1,3,19,4,40,83,108.94,120,15,-1044,1.18,0.11,-9.96,5,0,1,0,67,342,1495.28,37.86,861.74,36.76,13.84,-24969,9010,19572,-422.32,0.48,0,0.02,0.13,,-3.11,1.16,2.561,1,4.08,7.16,71.8,3.9,7.16,196.9,4.17,0.59,6,948,162
3207354,2000,1,3,19,4,50,83,97.6,128,2,-1047,1.24,0.03,-10.04,5,0,1,0,67,343,1494.89,37.84,861.77,36.77,13.97,-24713,8963,-28984,-422.32,0.48,0,0.02,0.12,-0.94,-3.05,1.1,2.201,1,4.08,7.17,72.1,3.86,7.2,212.2,4.16,0.63,6.5,951,205
3217358,2000,1,3,19,5,0,83,98.93,125,8,-1051,1.15,0.04,-9.99,5,0,1,0,67,343,1494.95,37.8,861.75,36.78,13.62,-23945,8842,5859,-422.32,0.48,0,0.02,0.12,-0.94,-3.05,1.16,-0.061,1,4.08,7.19,72,3.89,7.22,246.2,4.16,0.68,6.7,954,215
3227385,2000,1,3,19,5,10,83,108.57,131,8,-1046,1.25,0.11,-9.99,5,0,1,0,67,343,1495.03,37.84,861.76,36.79,13.7,-22921,9038,-14827,-422.32,0.48,0,0.02,0.11,-0.94,-3.11,1.22,0.241,1,4.08,7.16,72,3.84,7.2,241.9,4.17,0.59,6.2,957,203
3237390,2000,1,3,19,5,20,83,108.34,124,4,-1050,1.18,0.05,-10.06,5,0,1,0,67,344,1494.79,37.85,861.78,36.8,13.6,-21641,8706,-7470,-422.32,0.48,0,0.01,0.12,-0.94,-3.05,1.22,-0.431,1,4.08,7.18,72.4,3.89,7.18,257.6,4.17,0.62,6.2,960,172
3247423,2000,1,3,19,5,30,83,104.47,127,16,-1054,1.24,0.12,-10.07,5,0,1,0,67,344,1496.88,37.86,861.6,36.78,13.83,-23945,9098,17257,-422.32,0.48,0,0.02,0.11,-0.94,-3.11,1.16,-0.921,1,4.08,7.22,71.7,3.91,7.19,,4.16,0.65,6.5,963,160
3257440,2000,1,3,19,5,40,83,109.73,123,5,-1049,1.21,0.07,-9.99,5,0,1,0,68,344,1495.96,37.82,861.66,36.79,13.57,-22409,8785,-24126,-422.32,0.48,0,0.02,0.12,-0.94,-3.17,1.16,1.711,1,4.08,7.14,72.3,3.92,7.23,214.3,4.16,0.62,6.2,966,170
3267481,2000,1,3,19,5,50,83,111.4,121,10,-1044,1.16,0.11,-10.03,5,0,1,0,68,345,1494.9,37.81,861.76,36.78,13.71,-23177,8989,19996,-422.32,0.48,0,0.02,0.12,-0.94,-3.11,1.16,0.491,1,4.08,7.22,72,3.89,7.17,207.6,4.17,0.61,6.1,969,172
3277510,2000,1,3,19,6,0,83,106.06,131,-4,-1044,1.22,-0.06,-10.06,5,0,1,0,67,345,1494.97,37.79,861.74,36.79,13.78,-22153,9056,-22709,-422.32,0.48,0,0.01,0.11,-0.94,-3.11,1.34,-1.281,1,4.08,7.2,71.7,3.83,7.16,255.3,4.16,0.63,6.4,972,213
3287535,2000,1,3,19,6,10,83,106.32,120,12,-1050,1.16,0.08,-10.05,5,0,1,0,67,345,1496.69,37.76,861.57,,13.74,-22409,9041,-5842,-422.32,0.48,0,0.02,0.13,-0.94,-3.05,0.98,1.401,1,4.07,7.19,72.4,3.8,7.17,168.4,4.16,0.6,6.2,975,260
3297562,2000,1,3,19,6,20,83,107.96,130,6,-1049,1.24,0.08,-10,5,0,1,0,67,345,1495.1,37.79,861.73,36.79,13.44,-22921,8782,8302,-422.32,0.48,0,0.02,0.12,-0.94,-3.05,1.16,-0.431,1,4.07,7.2,71.7,3.92,7.2,148.5,4.16,0.59,5.8,978,170
3307671,2000,1,3,19,6,30,83,99.98,124,5,-1047,1.22,0.04,-9.98,5,0,1,0,67,345,1494.61,37.77,861.76,36.79,13.45,-22409,8785,12147,-422.32,0.48,0,0.02,0.12,-0.94,-3.05,1.16,-0.491,1,4.07,7.16,71.9,3.85,7.21,179.8,4.16,0.64,6,981,170
3317686,2000,1,3,19,6,40,83,105.67,120,9,-1047,1.14,0.09,-10.04,5,0,1,0,67,345,1495.04,37.75,861.72,36.78,13.22,-23177,8477,9689,-422.32,0.48,0,0.02,0.11,-0.94,-3.11,1.16,0.061,1,4.08,7.16,72.2,3.89,7.19,183,4.16,0.59,6,984,170
3327692,2000,1,3,19,6,50,83,107.79,134,14,-1044,1.28,0.11,-10.06,5,0,1,0,67,345,1495.11,37.76,861.72,36.79,12.81,-22409,8273,1486,-422.32,0.48,0,0.02,0.12,-0.95,-3.11,1.16,-0.121,1,4.08,7.15,72.4,3.76,7.21,201.2,4.16,0.58,5.9,987,172
3337736,2000,1,3,19,7,0,83,97.78,130,9,-1044,1.23,0.06,-10.06,5,0,1,0,67,345,1494.66,37.74,861.75,36.79,12.94,-22921,8526,19746,-422.32,0.48,0,0.02,0.13,-0.94,,1.16,0.241,1,4.07,7.17,72.1,3.85,7.21,231.2,4.16,0.69,6.6,990,213
3347816,2000,1,3,19,7,10,83,108.48,126,9,-1044,1.22,0.06,-9.99,5,0,1,0,67,344,1494.41,37.71,861.76,36.8,13.31,-21641,8706,32280,-422.32,0.48,0,0.02,0.12,-0.94,-3.05,1.22,-0.311,1,4.07,7.19,72.3,4.1,7.18,11.4,4.16,0.61,6.1,993,258
3357818,2000,1,3,19,7,20,83,107.49,129,11,-1046,1.18,0.11,-10,5,0,1,0,67,344,1495.85,37.83,861.68,36.79,13.5,-22409,8785,-17008,-422.32,0.48,0,0.02,0.13,-0.94,-3.17,1.16,0.371,1,4.08,7.22,72.3,3.87,7.21,152,4.16,0.62,6.3,996,160
3367849,2000,1,3,19,7,30,83,109.59,129,11,-1047,1.23,0.16,-9.99,5,0,1,0,67,343,1495.13,37.81,861.73,36.79,13.69,-22409,9041,3340,-422.32,0.48,0,0.02,0.12,-0.94,-3.05,1.28,0.001,1,4.07,7.17,72.1,3.95,7.18,182.5,4.16,0.66,6.8,999,205
3377881,2000,1,3,19,7,40,83,104.73,122,1,-1045,1.21,0.02,-10.02,5,0,1,0,67,343,1495.61,37.82,861.7,36.82,13.86,-19849,9161,2688,-422.32,0.48,0,0.02,0.12,-0.94,-3.11,1.34,-0.491,1,4.08,7.22,71.8,3.89,7.21,295.6,4.16,0.61,6.3,1002,204
3387908,2000,1,3,19,7,50,83,106.08,118,3,-1045,1.12,0.08,-10.02,5,0,1,0,67,342,1496.56,37.87,861.63,36.83,14,-18313,8978,14557,-422.32,0.48,0,0.02,0.13,-0.94,-3.11,1.1,1.221,1,4.08,7.23,71.8,3.86,7.16,187.6,,0.62,6.3,1005,159
3397928,2000,1,3,19,8,0,83,105.89,135,9,-1044,1.3,0.11,-10.03,5,0,1,0,67,342,1497.15,37.88,861.58,36.81,13.93,-20873,9207,22442,-422.32,0.48,0,0.02,0.11,-0.94,-3.11,1.16,-0.731,1,4.08,7.22,72.1,3.92,7.18,279.8,4.16,0.59,6,1008,170
3407960,2000,1,3,19,8,11,83,108.4,123,3,-1043,1.19,-0.03,-10.03,5,0,1,0,67,343,1496.82,37.87,861.6,36.82,13.82,-19337,9071,15973,-422.32,0.48,0,0.01,0.12,-0.94,-3.11,1.16,-2.931,1,4.07,7.18,71.8,3.92,7.15,206.7,4.16,0.59,5.9,1011,204
3417974,2000,1,3,19,8,21,83,109.07,122,5,-1042,1.15,0.02,-10.04,5,0,1,0,67,343,1496.41,37.85,861.64,36.83,13.87,-18825,8973,-12668,-422.32,0.48,0,0.01,0.12,-0.94,-3.05,1.1,0.551,1,4.07,7.2,72,3.82,7.16,203.2,4.16,0.63,6.1,1014,170
3428007,2000,1,3,19,8,31,83,106.55,119,1,-1050,1.13,-0.04,-10.06,5,0,1,0,67,342,1497.38,37.89,861.57,36.84,1.16,-18057,8995,-7745,-422.32,0.48,0,0.02,0.13,-0.94,-3.17,1.28,-0.241,1,4.07,7.17,72,3.78,7.2,222.1,4.16,0.71,6.9,1017,172
3438051,2000,1,3,19,8,41,83,106.78,128,10,-1046,1.24,0.1,-10.02,5,0,1,0,67,342,1497.75,37.88,861.53,36.87,14.06,-15241,9111,-8961,-422.32,0.48,0,0.02,0.12,-0.94,-3.17,0.92,0.551,1,4.08,7.15,72.3,3.86,7.18,235.5,4.16,0.68,7,1020,172
3448084,2000,1,3,19,8,51,83,108.12,116,6,-1047,,0.07,-9.99,5,0,1,0,68,341,1496.19,37.93,861.69,36.87,13.82,-14729,9205,15973,-422.32,0.48,0,0.03,0.12,-0.94,-3.05,1.28,-0.791,1,4.07,7.19,71.8,3.92,7.18,218.8,4.16,0.6,6.3,1023,172
3458127,2000,1,3,19,9,1,83,97.4,127,5,-1048,1.22,0.06,-10.05,5,0,1,0,68,341,1496.51,37.89,861.65,36.88,13.76,-14217,9194,-14276,-422.32,0.48,0,0.02,0.12,-0.94,-3.11,1.22,0.491,1,4.07,7.19,72.1,3.87,7.19,233.7,4.17,0.6,5.8,1026,215
3468165,2000,1,3,19,9,11,83,104.55,127,3,-1047,1.24,0.06,-9.99,5,0,1,0,68,341,1497.14,37.91,861.6,36.94,13.73,-8329,9022,32297,-422.32,0.48,0,0.02,0.12,-0.94,-3.17,1.1,-0.241,1,4.08,7.19,72.2,3.92,7.23,203,4.16,0.58,6.1,1029,215
3478192,2000,1,3,19,9,21,83,107.36,126,4,-1046,1.19,0.05,-10.07,5,0,1,0,68,340,1497.67,37.92,861.55,36.98,13.88,-4233,9211,-11894,-422.32,0.48,0,0.01,0.12,-0.94,-3.17,,0.431,1,4.07,7.22,71.8,3.9,7.19,199.3,4.16,0.61,6,1032,256
3488190,2000,1,3,19,9,31,83,107.39,129,3,-1046,1.24,0.03,-10.03,5,0,1,0,68,339,1497.63,37.96,861.57,36.96,14.05,-5769,9053,-16643,-422.32,0.48,0,0.02,0.12,-0.94,-3.05,1.16,-0.491,1,4.07,7.22,72.1,3.89,7.22,183.5,4.16,0.63,6.7,1035,260
3498262,2000,1,3,19,9,41,83,107.23,124,7,-1047,1.24,0.07,-10.02,5,0,1,0,68,339,1497.43,37.99,861.6,36.94,14.38,-8329,9278,31958,-422.32,0.48,0,0.02,0.12,-0.94,-3.11,1.34,-0.551,1,4.07,7.22,71.8,3.83,7.14,264.9,4.16,0.71,7,1038,168
3508287,2000,1,3,19,9,51,83,107.03,129,19,-1048,1.24,0.17,-9.97,5,0,1,0,68,339,1497.68,38.05,861.61,36.97,14.68,-5001,9640,-21864,-422.32,0.48,0,0.02,0.12,-0.94,-3.11,0.85,-0.551,1,4.07,7.19,71.8,3.92,7.23,152.8,4.16,0.6,5.8,1041,160
3518312,2000,1,3,19,10,1,83,107.27,124,1,-1045,1.21,-0.04,-10.04,5,0,1,0,68,339,1498.65,38.07,861.53,37,14.49,-2697,9571,5148,-422.32,0.48,0,0.01,0.11,-0.94,-3.05,1.16,-1.591,1,4.07,7.21,72,3.83,7.14,214.7,4.16,0.61,6.8,1044,160
3528316,2000,1,3,19,10,11,83,96,123,-5,-1047,1.22,-0.04,-10.09,5,0,1,0,68,338,1499.39,38.08,861.46,37,14.24,-2441,9264,-20871,-422.32,0.48,0,0.01,0.13,-0.94,-3.11,1.16,-3.851,1,4.07,7.23,72,3.89,7.21,272.4,4.16,,6.9,1047,205
3538331,2000,1,3,19,10,21,83,111.95,137,10,-1044,1.27,0.07,-10,5,0,1,0,68,338,1498.65,38.09,861.54,37.04,14,1144,9033,-20518,-422.32,0.48,0,0.01,0.11,-0.94,-3.11,1.28,1.461,1,4.07,7.16,71.7,3.95,7.19,228.6,4.16,0.66,6.6,1050,160
3548350,2000,1,3,19,10,31,83,111.8,115,15,-1048,1.12,0.11,-10.05,5,0,1,0,68,338,1498.01,38.1,861.6,37.02,14,-137,9144,-20518,-422.32,0.48,0,0.03,0.12,-0.94,-3.17,1.16,-0.121,1,4.07,7.16,72.4,3.87,7.19,175.4,4.16,0.62,6.5,1053,170
3558356,2000,1,3,19,10,41,83,98.34,151,0,-1044,1.42,0,-10.04,5,0,1,0,68,339,1497.94,38.11,861.61,37.01,13.97,-1161,9084,-16439,-422.32,0.48,0,0.03,0.11,-0.94,-2.81,1.28,-3.051,1,4.07,7.16,72.4,3.93,7.21,191.5,4.16,0.63,6.6,1056,203
3568449,2000,1,3,19,10,51,83,102.17,105,15,-1045,0.92,0.28,-10,5,0,1,0,68,340,1498.48,38.08,861.55,37.02,13.79,-393,8328,27730,-422.32,0.48,0,0.03,0.13,-0.94,-3.3,1.1,-0.181,1,4.07,7.2,71.8,3.92,7.21,221.3,4.16,0.67,6.6,1059,168
3578548,2000,1,3,19,11,1,83,103.54,126,5,-1043,1.24,0.1,-9.99,5,0,1,0,68,340,1498.07,38.03,861.56,37.05,13.78,2168,9012,-9657,-422.32,0.48,0,0.02,0.12,-0.94,-3.17,0.98,7.021,1,4.07,7.2,71.8,3.92,7.17,281.9,4.16,0.62,6.3,1062,260
3588560,2000,1,3,19,11,11,83,100.41,133,-3,-1048,1.24,,-10,5,0,1,0,68,340,1498.22,38.09,861.57,37.06,13.79,2936,9063,21070,-422.32,0.48,0,0.01,0.11,-0.94,-3.17,1.34,1.341,1,4.07,7.19,72,3.92,7.18,248.3,4.16,0.64,6.4,1065,203
3598592,2000,1,3,19,11,21,83,106.16,143,5,-1047,1.35,0.09,-9.96,5,0,1,0,44,340,1496.34,38.12,861.76,37.06,13.74,2936,9063,-19152,-422.32,0.48,0,0.01,0.12,-0.94,-3.05,1.1,-0.371,1,4.07,7.18,72.2,3.82,7.21,245.7,4.16,0.67,6.7,1068,247
3608594,2000,1,3,19,11,31,83,103.5,129,-3,-1051,1.18,0,-10.07,5,0,1,0,68,340,1498.29,38.09,861.57,37.08,13.7,5240,8970,24595,-422.32,0.48,0,0.01,0.11,-0.94,-3.11,1.22,-1.831,1,4.07,7.2,72.2,3.88,7.21,177.5,4.16,0.61,6.1,1071,258
3618613,2000,1,3,19,11,41,83,106.66,113,10,-1052,1.16,0.07,-10.03,5,0,1,0,68,340,1499.06,38.18,861.54,37.1,13.68,7288,9139,-26101,-422.32,0.48,0,0.02,0.13,-0.94,-3.11,1.04,1,1,4.07,7.16,72.3,3.95,7.16,195,4.16,0.63,6.4,1074,159
3628666,2000,1,3,19,11,51,83,95.25,136,-5,-1038,1.37,-0.06,-10.03,5,0,1,0,44,340,1497.34,38.09,861.66,37.11,13.54,8056,8928,26542,-422.32,0.48,0,0.02,0.12,-0.94,-2.87,1.4,-3.111,1,4.07,7.17,71.9,3.87,7.21,188.2,4.16,0.72,7.4,1077,258
3638712,2000,1,3,19,12,1,83,107.59,124,17,-1050,1.24,0.14,-10.05,5,0,1,0,68,340,1498.74,38.09,861.53,37.12,13.65,8824,8809,-15628,-422.32,0.48,0,0.03,0.12,-0.94,-2.81,0.85,-0.241,1,4.07,7.18,71.8,3.9,7.16,220.1,4.16,0.67,6.5,1080,256
3648720,2000,1,3,19,12,11,83,107.54,130,2,-1045,1.13,-0.04,-10,5,0,1,0,68,340,1499.07,38.18,861.54,37.13,13.57,9592,8958,-15424,-422.32,0.48,0,0.02,0.11,-0.94,-3.11,1.46,-1.281,1,4.07,7.16,72.2,3.89,7.21,234.7,4.16,0.61,6,1083,160
3658754,2000,1,3,19,12,21,83,103.84,139,-3,-1053,1.31,-0.04,-10,5,0,1,0,44,341,1497.89,38.15,861.63,37.11,13.54,8056,8928,-23638,-422.32,0.48,0,0.01,0,-0.94,-3.11,1.16,0.241,1,4.07,7.18,72.4,4.1,7.19,84.8,4.16,0.71,7.1,1086,258
3668791,2000,1,3,19,12,31,83,106.03,128,3,-1047,1.26,0.06,-10.1,5,0,1,0,68,342,1497.73,38.12,861.63,37.1,13.24,7288,8627,-25115,-422.32,0.48,0,0.02,0.13,-0.95,-3.11,1.16,0.671,1,4.07,7.22,72,3.85,7.21,232.2,4.16,0.63,,1089,168
3678797,2000,1,3,19,12,41,83,109.23,129,10,-1045,1.24,0.06,-10.07,5,0,1,0,68,342,1497.36,38.15,861.68,37.13,13.11,10360,8626,26005,-422.32,0.48,0,0.02,0.12,-0.94,-3.05,1.16,0.241,1,4.07,7.18,72.1,3.91,7.19,170.9,4.16,0.67,6.7,1092,160
3688820,2000,1,3,19,12,51,83,107.58,132,6,-1047,1.24,0.05,-10.01,5,0,1,0,44,342,1496.46,38.17,861.77,37.11,13.12,8568,8506,6297,-422.32,0.48,0,0.02,0.12,-0.94,-2.99,1.16,-0.181,1,4.07,7.17,72.1,3.87,7.17,207.1,4.16,0.63,6.3,1095,162
3698821,2000,1,3,19,13,1,83,107.25,127,7,-1052,1.24,0.11,-10.02,5,0,1,0,68,343,1498.14,38.13,861.6,37.14,13.23,10616,8579,-21276,-422.32,0.48,0,0.01,0.11,-0.94,-3.11,1.22,-2.871,1,4.07,7.2,71.8,3.93,7.21,205.2,4.16,0.63,6.2,1098,202
3708827,2000,1,3,19,13,11,83,108.45,117,2,-1050,1.15,0,-10.05,5,0,1,0,68,342,1497.66,38.08,861.62,37.13,13.08,10104,8604,-11392,-422,0.48,0,0.02,0.13,-0.94,-3.17,1.22,-3.051,1,4.07,7.18,71.9,3.82,7.22,217.3,4.16,0.61,6,1101,258
3718889,2000,1,3,19,13,21,83,109.26,134,-2,-1045,1.31,0,-10.06,5,0,1,0,44,342,1496.15,38.1,861.77,37.16,13.01,12920,8490,-17841,-422.32,0.48,0,0.02,0.12,-0.94,-2.99,1.1,-0.791,1,4.07,7.17,72.3,3.91,7.2,249.1,4.16,0.65,6.7,1104,170
3728959,2000,1,3,19,13,32,83,107.21,129,3,-1046,1.23,0.04,,5,0,1,0,68,342,1497.28,38.07,861.65,37.12,13.17,9336,8655,23229,-422.32,0.48,0,0.02,0.12,-0.94,-3.11,1.22,-1.531,1,4.07,7.13,72.5,3.92,7.23,245.7,4.16,0.63,6.4,1107,170
3739011,2000,1,3,19,13,42,83,101.75,130,10,-1045,1.27,0.1,-10.04,5,0,1,0,68,343,1497.07,38.05,861.66,37.13,13.24,9592,8702,-12570,-422.32,0.48,0,0.02,0.12,-0.94,-2.99,1.1,0.731,1,4.07,7.19,71.6,3.88,7.17,210.9,4.17,0.61,6.1,1110,213
3749017,2000,1,3,19,13,52,83,107.76,130,6,-1049,1.15,0.12,-9.98,5,0,1,0,44,343,1496.14,38.11,861.77,37.17,13.25,14200,8671,18159,-422.32,0.48,0,0.02,0.12,-0.94,-3.11,0.98,0.431,1,4.07,7.19,71.9,3.82,7.17,219.8,4.16,0.65,6.2,1113,168
3759034,2000,1,3,19,14,2,83,108.04,121,14,-1046,1.2,0.11,-10.03,5,0,1,0,68,343,1497.52,38.09,861.64,37.13,13.25,10360,8626,5612,-422.32,0.48,0,0.03,0.12,-0.94,-3.11,1.22,-1.101,1,4.07,7.19,71.8,3.89,7.2,254.9,4.16,0.67,6.6,1116,170
3769120,2000,1,3,19,14,12,83,103.32,126,12,-1053,1.19,0.09,-10.09,5,0,1,0,68,343,1497.83,38.03,861.58,37.19,12.86,16248,8294,-4367,-422.32,0.48,0,0.02,0.12,-0.95,-3.05,1.1,-0.241,1,4.07,7.16,72,3.86,7.16,275.2,4.16,0.66,6.6,1119,258
3779147,2000,1,3,19,14,22,83,107.27,130,2,-1047,1.26,-0.04,-10,5,0,1,0,68,343,1497.5,38.11,861.65,37.15,12.76,11896,8212,-9044,,0.48,0,0.01,0.11,-0.94,-3.17,1.1,0.181,1,4.07,7.17,72,3.82,7.21,236.3,4.16,0.62,6.4,1122,162
3789154,2000,1,3,19,14,32,83,107.74,124,4,-1053,1.17,0.04,-10,5,0,1,0,68,344,1497.85,38.06,861.6,37.19,12.96,15480,8501,12334,-422.32,0.48,0,0.01,0.11,-0.94,-3.11,1.16,0.241,1,4.07,7.2,72.1,3.89,7.16,267,4.16,0.64,5.6,1125,170
3799240,2000,1,3,19,14,42,83,109.25,138,-1,-1044,1.28,-0.04,-9.99,5,0,1,0,68,344,1497.51,38.02,861.61,37.12,12.93,8824,8553,27,-422.32,0.48,0,0.02,0.11,-0.95,-3.11,1.34,-0.921,1,4.07,7.22,71.6,3.93,7.18,272.8,4.16,0.59,6.1,1128,172
3809249,2000,1,3,19,14,52,83,109.7,118,12,-1049,1.21,0.09,-9.99,5,0,1,0,68,344,1497.65,38.1,861.63,37.13,13,10360,8626,-5812,-422.32,0.48,0,0.02,0.12,-0.94,-3.11,1.1,-0.431,1,4.07,7.13,72.1,3.9,7.25,240.2,4.16,0.62,6.1,1131,130
3819257,2000,1,3,19,15,2,83,107.52,124,6,-1047,1.21,0.06,-10.11,5,0,1,0,68,344,1497.45,38.05,861.63,37.11,12.69,8056,8416,-5763,-422.32,0.48,0,0.02,0.11,-0.94,-3.17,1.16,-0.241,1,4.07,7.21,71.8,3.84,7.16,158.4,4.16,0.56,5.6,1134,203
3829293,2000,1,3,19,15,12,83,105.69,127,3,-1056,1.24,0.08,-10,5,0,1,0,68,344,1497.1,37.98,861.63,37.14,12.7,11384,8310,-7292,-422.32,0.48,0,0.03,0.13,-0.94,-3.11,1.16,-0.371,1,,7.16,71.5,3.89,7.17,226.7,4.16,0.59,6.1,1137,258
3839311,2000,1,3,19,15,22,83,97.63,129,6,-1048,1.2,0.11,-9.95,5,0,1,0,68,344,1497.3,38.03,861.63,37.14,12.84,11128,8417,27109,-422.32,0.48,0,0.02,0.12,-0.95,-3.11,1.16,0.551,1,4.07,7.15,72.3,3.91,7.21,204.8,4.16,0.67,6.6,1140,215
3849320,2000,1,3,19,15,32,83,97.23,120,12,-1045,1.17,0.05,-10.06,5,0,1,0,68,343,1497.03,38.06,861.67,37.13,12.82,10104,8348,-21291,-422.32,0.48,0,0.02,0.12,-0.94,-3.11,1.16,0.061,1,4.07,7.14,72,3.94,7.24,144,4.16,0.69,6.8,1143,205
3859326,2000,1,3,19,15,42,83,109.05,129,8,-1048,1.24,0.07,-10.01,5,0,1,0,68,343,1496.62,38.02,861.69,37.13,12.82,10104,8348,15314,-422.32,0.48,0,0.02,0.12,-0.94,-3.11,1.04,-0.431,1,4.07,7.13,72.1,3.9,7.18,198.4,4.16,0.69,6.7,1146,259
3869399,2000,1,3,19,15,52,83,102.21,120,8,-1051,1.15,0.04,-10.07,5,0,1,0,68,343,1497.51,38,861.6,37.16,12.52,12664,8313,16910,-422.32,0.48,0,0.02,0.13,-0.94,-3.11,1.04,0.241,1,4.07,7.2,71.7,3.89,7.21,193.2,4.16,0.62,6.1,1149,215
3879407,2000,1,3,19,16,2,83,109.69,127,6,-1049,1.22,0.07,-10.07,5,0,1,0,68,342,1497.13,38.08,861.67,37.15,12.59,11896,8212,-30914,-422.32,0.48,0,0.02,0.12,-0.94,-3.11,1.16,-0.491,1,4.07,7.24,71.9,3.9,7.21,186.9,4.16,0.61,5.9,1152,160
3889430,2000,1,3,19,16,12,83,108.57,126,13,-1042,1.24,0.11,-10.06,5,0,1,0,68,342,1496.94,38.09,861.69,37.14,12.93,11128,8673,-23011,-422.32,0.48,0,0.02,0.12,-0.94,-3.05,1.04,-0.061,1,4.07,7.2,72.1,3.91,7.19,190.5,4.16,0.68,6.3,1155,160
3899453,2000,1,3,19,16,22,83,107.99,132,6,-1044,1.24,0.06,-10.05,5,0,1,0,68,342,1497.47,38.05,861.63,37.18,13.17,14456,8689,23229,-422.32,0.48,0,0.02,0.12,-0.94,-2.99,1.1,-1.161,1,4.06,7.19,71.9,3.86,7.16,231.1,4.16,0.6,6,1158,250
3909472,2000,1,3,19,16,32,83,96.3,126,7,-1050,1.21,0.06,-10.06,5,0,1,0,68,341,1497.77,38.07,861.61,37.17,13.27,13688,8637,22268,-422.32,0.48,0,0.02,0.12,-0.94,-3.05,1.16,1.831,1,4.06,7.13,72.4,3.88,7.2,273.2,4.16,0.62,6,1161,170
3919503,2000,1,3,19,16,42,83,93.77,120,6,-1047,1.17,0.11,-10.03,5,0,1,0,68,341,1497.92,38.09,861.6,37.16,13.34,12920,8746,-9942,-422.32,,0,0.03,0.12,-0.94,-3.11,1.16,-2.321,1,4.06,7.18,71.9,3.91,7.2,227.1,4.16,0.63,6.2,1164,213
3929511,2000,1,3,19,16,52,83,95.77,131,-6,-1045,1.22,-0.06,-10.02,5,0,1,0,68,340,1497.77,38.08,861.61,37.18,13.45,14456,8945,7794,-422.32,0.48,0,0.02,0.11,-0.94,-3.11,1.28,-0.431,1,4.07,7.18,72.1,3.88,7.19,219.3,4.16,0.69,6.9,1167,258
3939530,2000,1,3,19,17,2,83,97.83,125,4,-1044,1.19,0.01,-10.05,5,0,1,0,4,340,1497.49,38.09,861.64,37.22,13.47,18808,8760,380,-422.32,0.48,0,0.02,0.12,-0.94,-3.11,1.16,-1.221,1,4.07,7.23,71.8,3.84,7.21,214.7,4.16,0.57,5.9,1170,258
3949637,2000,1,3,19,17,12,83,105.17,122,20,-1044,1.18,0.2,-9.99,5,0,1,0,68,340,1497.16,38.08,861.67,37.23,13.45,19576,8909,7794,-422.32,0.48,0,0.02,0.12,-0.94,-3.05,1.1,-0.491,1,4.07,7.2,72.2,3.81,7.24,192.1,4.16,0.69,7.1,1173,260
1088777074,2000,1,3,19,17,22,83,97.14,133,6,-1048,1.3,0.07,-10.04,5,0,1,0,68,339,1497.86,38.1,861.61,37.24,13.28,20344,8862,-31744,-422.32,0.48,0,0.02,0.12,-0.94,-3.11,1.28,-0.611,1,4.07,7.21,72.1,3.86,7.22,196.6,4.16,0.7,6.9,1176,303
3969669,2000,1,3,19,17,32,83,108.88,133,24,-1032,1.45,0.34,-9.73,5,0,1,0,68,339,1497.68,38.16,861.66,37.22,13.27,19064,8555,1535,-422.32,0.48,0,0.02,0.12,-0.94,-3.17,1.1,1.221,1,4.06,,72.1,3.92,7.19,205.2,4.16,0.75,7.2,1179,247
3979765,2000,1,3,19,17,42,83,103.28,124,13,-1051,1.19,0.03,-10.07,5,0,1,0,68,339,1498.87,38.14,861.54,37.26,13.06,22904,8571,-27276,-422.32,0.48,0,0.02,0.12,-0.94,-3.11,1.1,-7.871,1,4.07,7.22,72,3.92,7.18,205.5,4.16,0.58,6,1182,258
3989784,2000,1,3,19,17,52,83,96.38,124,10,-1043,1.19,0.09,-10,5,0,1,0,68,338,1498.85,38.24,861.58,37.28,12.93,24696,8502,-26852,-422.32,0.48,0,0.02,0.12,-0.94,-3.11,0.98,-0.061,1,4.07,7.17,72.6,3.89,7.16,236.8,4.16,0.62,6.1,1185,203
3999815,2000,1,3,19,18,2,83,106.4,130,-2,-1049,1.24,-0.01,-9.95,5,0,1,0,68,338,1499.16,38.3,861.58,37.27,12.84,23928,8383,-286,-422.32,0.48,0,0.01,0.11,-0.94,-3.11,1.22,1.951,1,4.07,7.15,72.1,3.88,7.17,228,4.16,0.63,6,1188,160
4003854,2000,1,3,19,18,6,83,1164.13,127,156,-5820,1.04,1.23,-55.74,5,0,1,0,220,339,1746.78,38.28,839.2,37.29,12.91,25464,8549,-6899,-444.77,0.48,0,-0.06,0.03,-8.7,-8.18,11.05,-150.821,1,4.08,4.65,47,3.93,4.7,235.6,4.16,1.87,19,1189,256
4004159,2000,1,3,19,18,7,83,1006.73,140,-287,-5820,0.69,-2.78,-55.74,5,0,1,0,54,339,1798.93,38.18,834.53,37.27,12.94,23672,8590,7713,-444.77,0.48,0,-0.15,0,-8.11,-8.36,-5.31,-168.031,1,4.08,4.69,47.2,3.89,4.73,204.7,4.16,1.78,17.7,1190,211
4004421,2000,1,3,19,18,7,83,1014,20,-131,-5545,0.24,-1.18,-52.78,5,0,1,0,83,339,1846.73,38.15,830.3,37.29,12.96,25464,8549,12334,-444.77,0.48,0,-0.21,0.14,-4.79,-3.48,3.72,-168.461,1,4.08,4.68,47.3,3.84,4.74,184.4,4.16,1.77,17.6,1191,168
4004640,2000,1,3,19,18,7,83,710.83,25,-88,-4659,0.32,-0.74,-44.12,5,0,1,0,109,339,1896.73,38.13,825.91,37.28,12.96,24696,8502,12334,-444.77,0.48,0,0.04,0.09,-4.09,-2.26,-2.5,-168.761,1,4.08,4.72,47,3.9,4.68,168.1,4.16,1.84,18.2,1192,168
4004857,2000,1,3,19,18,7,83,460.22,73,-216,-1700,1.67,-2.25,-16.38,5,0,1,0,114,339,1946.45,38.12,821.57,37.29,12.95,25464,8549,-3030,-444.77,0.48,0,-0.15,0.04,-0.9,-2.44,1.1,-165.711,1,4.08,4.75,46.9,3.87,4.69,161.6,4.16,1.89,18.9,1193,168
4005076,2000,1,3,19,18,8,83,49.66,-52,-50,1029,-0.46,-0.58,9.52,4,0,1,0,990,340,2073.18,38.03,810.61,37.28,13,24440,8669,-29874,-444.77,0.48,,-0.05,-0.02,1.13,2.14,2.62,-164.981,1,4.08,4.75,47.3,3.94,4.72,278,4.16,1.71,17.3,1194,302
4005429,2000,1,3,19,18,8,83,181.51,174,19,919,1.94,-0.11,8.51,4,0,1,0,990,340,2104.9,38.03,807.91,37.3,13,26232,8592,-29874,-444.77,0.48,0,0.07,0.06,0.91,-3.11,3.42,-155.331,1,4.08,4.75,47.6,3.82,4.69,185.9,4.16,1.78,18.3,1195,168
4005648,2000,1,3,19,18,8,83,122.89,108,-46,932,0.53,-0.82,8.59,4,0,1,0,990,340,2152.44,38.03,803.88,37.31,13.04,27512,8668,-6299,-444.77,0.48,0,0.01,0.14,0.93,-1.65,-0.12,-158.811,1,4.08,4.72,48,3.9,4.76,250.3,4.16,1.83,18.4,1196,168
4005865,2000,1,3,19,18,8,83,140.02,57,-167,907,0.93,-1.76,8.32,4,0,1,0,990,340,2225.15,38.02,797.75,37.29,13.09,25464,8549,23433,-444.77,0.48,0,-0.07,0.14,0.9,-0.67,-2.38,-162.231,1,4.08,4.77,47.2,3.88,4.73,222.9,4.16,1.81,18.6,1197,258
4006172,2000,0,2,19,18,9,83,116.2,95,8,869,0.68,0.55,8.89,4,0,1,0,989,340,2279.97,38.02,793.17,37.31,13.13,27000,8638,-16737,-444.77,0.48,0,0.02,0.11,0.86,-1.71,5.62,-155.761,1,4.08,4.78,47.2,3.82,4.71,212.8,4.16,1.79,17.9,1198,211
4006434,2000,1,3,19,18,9,83,91.52,159,-15,819,1.92,0.14,8.16,4,0,1,0,989,340,2334.25,38.03,788.67,37.3,13.19,25976,8643,22472,-444.77,0.48,0,0.07,0.15,0.83,-5.74,0.61,-157.841,1,4.08,4.73,,3.89,4.72,157,4.16,1.78,17.7,1199,209
4006694,2000,1,3,19,18,9,83,94.38,21,-97,787,0.11,-0.78,7.41,4,0,1,0,989,340,2379.02,38.03,784.99,37.27,13.23,23672,8590,15331,-444.77,0.48,0,0,0.06,0.8,-1.53,3.85,-153.751,1,4.08,4.75,47.8,3.93,4.74,169.8,4.16,1.76,18.3,1200,168
4006912,2000,1,3,19,18,10,83,72.72,69,93,712,0.12,1.26,7.2,4,0,1,0,989,340,2433.71,38.03,780.5,37.31,13.23,27000,8638,-31777,-444.77,0.48,0,0.08,0.03,0.78,-4.15,8.42,-147.891,1,4.08,4.7,47.6,3.8,4.77,264.9,4.15,1.86,18.6,1201,212
4007174,2000,1,3,19,18,10,83,80.48,129,-55,787,1.27,-0.26,7.81,4,0,1,0,990,340,2478.3,38.03,776.88,37.3,13.24,25976,8643,-25,-444.77,0.48,0,-0.04,0.16,0.74,-4.46,1.16,-151.371,1,4.08,4.74,47.7,3.91,4.74,296.1,4.16,1.87,19.1,1202,170
4007393,2000,1,3,19,18,10,83,72.78,-100,-70,694,-0.48,-0.82,6.99,4,0,1,0,990,340,,38.03,772.58,37.3,13.22,26744,8591,-19746,-444.77,0.48,0,0.05,0,0.73,-1.71,1.22,-150.211,1,4.08,4.73,47.7,3.83,4.74,222.9,4.16,0.59,5.7,1203,211
4007655,2000,1,3,19,18,10,83,85.09,46,-10,670,0.42,-0.04,6.18,4,0,1,0,990,340,2580.83,38.03,768.6,37.29,13.27,25464,8549,-3846,-444.77,0.48,0,0.05,0.11,0.69,0.06,1.59,-147.831,1,4.08,4.75,47.1,3.87,4.72,261.7,4.16,0.61,6.1,1204,209
4007915,2000,1,3,19,18,11,83,72.35,132,-51,693,1.47,-0.64,5.78,4,0,1,0,990,340,2631.19,38.03,764.57,37.3,13.28,26744,8847,-31744,-444.77,0.48,0,0.04,0.11,0.68,-6.71,1.22,-147.771,1,4.08,4.72,47.8,3.94,4.73,229.3,4.16,0.62,6.3,1205,209
4008175,2000,1,3,19,18,11,83,72.23,10,-43,656,0.44,-0.55,5.48,4,0,1,0,989,340,2671.18,38.03,761.4,37.3,13.25,26232,8592,6897,-444.77,0.48,0,0.01,0.09,0.65,-4.7,0.12,-148.191,1,4.08,4.76,47.6,3.8,4.74,206.4,4.16,0.67,6.8,1206,168
4008392,2000,1,3,19,18,11,83,61.98,138,-1,666,1.05,0.12,6.26,4,0,1,0,989,340,2719.77,38.03,757.55,37.28,13.24,24696,8502,-25,-444.77,0.48,0,0.03,0.11,0.62,-5.92,2.62,-144.901,1,4.08,4.75,47.7,3.88,4.74,201.7,4.16,0.62,6.6,1207,213
4008654,2000,1,3,19,18,11,83,61.05,11,-27,562,0.48,-0.41,5.75,4,0,1,0,989,340,2767.44,38.02,753.81,37.3,13.27,26232,8592,-3846,-444.77,0.48,0,,0.02,0.61,-7.51,1.95,-144.041,1,4.08,4.75,47.2,3.95,4.69,226.6,4.16,0.69,6.3,1208,211
4008914,2000,1,3,19,18,12,83,74.7,114,32,571,0.79,0.2,5.39,4,0,1,0,121,339,2774.62,38.08,753.28,37.3,13.28,26744,8847,-6654,-444.77,0.48,0,0.04,0.12,0.59,-0.49,3.48,-141.851,1,4.08,4.68,47.5,3.86,4.7,182.8,4.16,0.67,6.7,1209,211
4009175,2000,1,3,19,18,12,83,58.83,60,-15,562,0.78,-0.29,5.32,4,0,1,0,109,339,2811.63,38.08,750.39,37.3,13.31,26232,8848,20503,-444.77,0.48,0,0.03,0.07,0.57,-3.85,5.25,-139.221,1,4.08,4.7,47.2,3.87,4.7,193.5,4.16,0.65,6.6,1210,167
4009392,2000,1,3,19,18,12,83,55.25,11,-16,565,-0.08,-0.34,5.55,4,0,1,0,106,339,2848.29,38.08,747.54,37.27,13.31,23928,8895,20503,-444.77,0.48,0,0,0.08,0.56,-2.26,1.46,-141.111,1,4.08,4.68,47.3,3.94,4.68,295.8,4.16,0.69,6.7,1211,168
4009611,2000,1,3,19,18,4,64,56.42,30,-47,500,0.09,-0.42,4.75,4,0,1,0,347,339,2891.91,38.07,744.16,37.26,13.36,22648,8778,-6346,-444.77,0.48,0,0.02,0.05,0.53,0.73,2.32,-140.321,1,4.08,4.66,47.5,3.83,4.73,198,4.16,0.57,6,1212,213
4009873,2000,1,3,19,18,13,83,50.94,86,-13,485,0.74,-0.25,4.85,4,0,1,0,469,339,2928.16,38.07,741.37,37.28,13.39,24440,8925,72,-444.77,0.48,0,0.07,0.09,0.52,-2.75,0.49,-138.181,1,4.08,4.72,47.4,,4.73,259.5,4.16,0.71,7.1,1213,168
4010092,2000,1,3,19,18,13,83,44.77,33,-24,458,0.35,-0.29,4.63,4,0,1,0,386,339,2969.76,38.06,738.18,37.27,13.43,23416,8729,-22425,-444.77,0.48,0,-0.01,0.13,0.5,-4.94,2.44,-136.661,1,4.08,4.69,47.5,3.89,4.75,173.3,4.16,0.6,5.9,1214,211
4010354,2000,1,3,19,18,13,83,39.05,-94,-85,477,-0.85,-0.7,4.4,4,0,1,0,169,339,3004.2,38.06,735.55,37.25,13.45,21368,8864,19825,-444.77,0.48,0,0.02,-0.02,0.48,-2.93,-2.99,-139.341,1,4.08,4.67,47.5,3.8,4.73,207.7,4.16,0.61,6,1215,168
4010571,2000,1,3,19,18,13,83,48.82,81,165,458,0.94,1.63,4.09,4,0,1,0,50,339,3038.07,38.06,732.98,37.28,13.49,24440,8925,-31860,-444.77,0.48,0,0.12,0.1,0.47,-2.75,4.64,-131.231,1,4.08,4.74,47.2,3.87,4.7,280.3,4.16,0.65,6.6,1216,168
4010790,2000,1,3,19,18,13,83,7.06,24,-72,451,0.07,-0.7,4.01,4,0,1,0,92,339,3082.98,,729.57,37.28,13.56,24440,8925,30653,-444.77,0.48,0,-0.03,0.05,0.47,-7.69,2.5,-133.001,1,4.08,4.7,47.3,3.87,4.69,160.4,4.16,0.68,6.9,1217,256
4011098,2000,1,3,19,18,14,83,17.74,-78,10,411,-0.47,-0.05,3.85,4,0,1,0,117,339,3121.16,38.04,726.7,37.29,13.61,25208,8788,-13091,-444.77,0.48,0,0.03,-0.07,0.46,-2.62,2.26,-132.871,1,4.08,4.72,47.3,3.87,4.69,184,4.16,0.62,6,1218,209
4011358,2000,1,3,19,18,14,83,42.02,124,92,406,1.27,0.97,4.05,4,0,1,0,119,339,3153.3,38.04,724.3,37.3,13.65,25976,8899,-15628,-444.77,0.48,0,0.12,0.13,0.43,0.85,3.11,-129.581,1,4.08,4.74,47,3.81,4.68,201.4,4.16,0.6,6,1219,168
4011575,2000,1,3,19,18,14,83,7.05,57,-2,391,0.58,0.07,4.17,4,0,1,0,104,339,3183.39,38.04,722.05,37.27,13.68,23672,9102,-10746,-444.77,0.48,0,0,0.04,0.43,-3.85,10.13,-123.231,1,4.08,4.69,46.9,3.86,4.72,239.5,4.16,0.66,6.5,1220,168
4011794,2000,1,3,19,18,14,83,1.32,-19,-86,429,-0.11,-0.78,3.82,4,0,1,0,148,339,3219.03,38.03,719.4,37.29,13.73,25464,9061,-29908,-444.77,0.48,0,0,0.04,0.42,-0.18,-3.85,-130.621,1,4.08,4.66,47.4,3.92,4.74,258.3,4.16,0.6,6.1,1221,211
4012056,2000,1,3,19,18,15,83,43.44,-35,103,382,-0.22,0.85,3.39,4,0,1,0,379,339,3250.32,38.03,717.09,37.27,13.77,23416,8985,12098,-444.77,0.48,0,0.08,,0.41,2.87,1.28,-125.981,1,4.08,4.75,46.9,3.82,4.7,276.2,4.16,0.61,6.1,1222,168
4012273,2000,1,3,19,18,15,83,-14.93,48,-43,321,0.22,-0.18,3.55,4,0,1,0,519,339,3282.13,38.03,714.74,37.29,13.8,25208,9044,-26281,-444.77,0.48,0,0.01,0.11,0.39,-0.43,-0.43,-125.121,1,4.08,4.7,47.5,3.8,4.76,207.4,4.16,0.66,6.7,1223,213
4012535,2000,1,3,19,18,15,83,-421.37,16,-74,356,0.47,-0.99,3.08,4,0,1,0,435,339,3314.99,38.02,712.01,37.29,13.82,25208,9044,28006,-444.77,0.48,0,-0.04,0.04,0.37,-5.62,1.95,-121.951,1,4.08,4.72,47.3,3.89,4.7,255.3,4.16,0.61,7.1,1224,213
4012797,2000,1,3,19,18,15,83,2.96,28,-84,328,0.35,-0.8,3.21,4,0,1,0,186,339,3342.11,38.02,710.34,37.28,13.87,24696,9014,-12668,-444.77,0.48,0,-0.05,0.04,0.37,-4.27,0.61,-123.781,1,4.08,4.67,47.3,3.88,4.65,234.8,4.16,0.73,7.1,1225,166
4013015,2000,1,3,19,18,16,83,4.71,18,6,343,0.34,0.07,3.22,4,0,1,0,41,339,3367.48,38.02,708.49,37.28,13.89,24696,9014,9359,-444.77,0.48,0,0.03,0.04,0.37,-5.19,-1.53,-123.411,1,4.08,4.74,47,3.9,4.71,232.5,4.16,0.71,7.2,1226,167
4013232,2000,1,3,19,18,16,83,9.28,25,19,331,0.23,0.04,3.27,4,0,1,0,70,339,3393.81,38.02,706.57,37.27,13.92,23928,9151,13736,-444.77,0.48,0,0.03,0.06,0.36,-4.33,3.17,-119.571,1,4.08,4.71,47.2,3.78,,200.3,4.16,0.61,6,1227,170
4013451,2000,1,3,19,18,16,83,4.34,18,-17,315,0.22,-0.09,3.22,4,0,1,0,109,339,3429.14,38,704,37.29,13.93,25208,9044,-23889,-444.77,0.48,0,0.02,0.06,0.34,-6.47,4.46,-116.821,1,4.08,4.69,47.1,3.89,4.73,185.6,4.16,0.61,5.9,1228,256
4013756,2000,1,3,19,18,16,83,10.94,5,-23,319,-0.01,-0.23,2.81,4,0,1,0,123,339,3453.06,38.01,702.28,37.27,13.98,23928,9151,-4918,-444.77,0.48,0,0.03,0.03,0.33,-3.97,3.66,-116.881,1,4.08,4.73,46.8,3.89,4.71,270.4,4.16,0.63,6.3,1229,168
4013973,2000,1,3,19,18,17,83,10.99,17,15,283,0.28,0.03,2.91,4,0,1,0,122,339,3476.77,38.01,700.58,37.28,13.98,24440,9181,-4918,-444.77,0.48,0,0.07,0.06,0.33,-2.2,3.54,-114.501,1,4.08,4.71,47.4,3.84,4.68,232,4.16,0.6,5.9,1230,168
4014192,2000,1,3,19,18,17,83,10.88,7,2,272,0.19,0.05,2.87,4,0,1,0,99,339,3504.7,38,,37.28,13.97,24696,9014,-15675,-444.77,0.48,0,0.05,0.02,0.32,-1.22,4.52,-112.241,1,4.08,4.73,47.2,3.82,4.72,209.1,4.16,0.67,6.4,1231,213
4014454,2000,1,3,19,18,17,83,7.35,56,-104,284,0.63,-0.88,2.57,4,0,1,0,134,339,3527.29,38,696.95,37.29,14,25464,9061,-20518,-444.77,0.48,0,0,0.05,0.32,-1.22,-0.37,-113.401,1,4.08,4.66,47.5,3.92,4.71,195.6,4.16,0.66,6.6,1232,168
4014673,2000,1,3,19,18,17,83,10.86,-71,30,281,-0.8,0.18,2.54,4,0,1,0,442,339,3557.86,37.98,694.76,37.28,14.01,24440,9181,-20000,-444.77,0.48,0,0.07,-0.03,0.3,0.79,2.32,-109.311,1,4.08,4.74,47.5,3.87,4.68,256.2,4.16,0.71,7.1,1233,256
4014979,2000,1,3,19,18,18,83,14.8,54,-80,249,0.34,-0.5,2.49,4,0,1,0,562,339,3579.57,37.98,693.22,37.29,14,25208,9044,-807,-444.77,0.48,0,-0.03,0.07,0.3,0.12,-1.22,-109.131,1,4.08,4.75,47.3,3.84,4.73,207.1,4.16,0.66,6.8,1234,168
4015198,2000,1,3,19,18,18,83,6.68,36,26,258,0.24,0.21,2.38,4,0,1,0,559,339,3598.93,37.99,691.85,37.3,14.02,26232,9104,14825,-444.77,0.48,0,0.04,0.03,0.3,-4.21,-1.65,-107.791,1,4.08,4.76,47.8,3.93,4.77,260.8,4.16,0.6,6.2,1235,168
4015417,2000,1,3,19,18,18,83,10.47,-12,-28,238,-0.11,-0.23,2.23,4,0,1,0,384,339,3623.13,37.98,690.14,37.29,14.02,25464,9061,14825,-444.77,0.48,0,0.01,0,,-3.36,0.31,-107.421,1,4.08,4.72,47.3,3.83,4.68,217.2,4.16,0.64,6.6,1236,211
4015679,2000,1,3,19,18,18,83,8.08,40,-28,239,0.51,-0.29,2.34,4,0,1,0,112,339,3645.45,37.97,688.56,37.29,14.04,25464,9061,26103,-444.77,0.48,0,0.03,0.06,0.29,-5.43,-1.34,-106.751,1,4.08,4.68,47.3,3.94,4.69,174.3,4.16,0.6,6.3,1237,211
4015939,2000,1,3,19,18,19,83,9.52,30,-22,240,0.29,-0.31,2.26,4,0,1,0,57,339,3666.89,37.97,687.05,37.3,14.04,25976,9155,14068,-444.77,0.48,0,0,0.03,0.28,-7.08,2.44,-104.491,1,4.08,4.7,47.3,3.9,4.72,244.3,4.16,0.68,6.8,1238,211
4016199,2000,1,3,19,18,19,83,9.36,5,-51,237,0.17,-0.47,2.46,4,0,1,0,87,339,3685.14,37.97,685.77,37.29,14.06,25464,9317,6660,-444.77,0.48,0,0,0.04,0.28,-5.31,2.08,-104.491,1,4.08,4.7,46.8,3.86,4.73,241.4,4.16,0.65,6.2,1239,168
4016416,2000,1,3,19,18,19,83,6.94,32,17283,223,0.38,-0.23,2.17,4,0,1,0,113,339,3702.71,37.97,684.54,37.25,14.06,21880,9222,6660,-444.77,0.48,0,0.05,0.06,0.27,-7.45,3.36,-102.291,1,4.08,4.69,47,3.84,4.7,185.7,4.16,0.59,6.4,1240,168
4016635,2000,1,3,19,18,19,83,7.14,-14,-4,226,-0.08,-0.07,2.14,4,0,1,0,130,339,3722.72,37.96,683.14,37.3,14.09,25976,9411,15126,-444.77,0.48,0,0.02,0,0.27,-3.54,5.86,-101.141,1,4.08,4.74,46.9,3.9,4.71,,4.16,0.67,6.5,1241,211
4016898,2000,1,3,19,18,20,83,6.38,38,-35,217,0.34,-0.37,1.97,4,0,1,0,130,339,3737.81,37.96,682.09,37.26,14.09,22648,9290,9240,-444.77,0.48,0,0.04,0.06,0.26,-1.59,4.03,-101.381,1,4.08,4.72,46.9,3.93,4.69,303.1,4.16,0.69,7,1242,167
4017117,2000,1,3,19,18,20,83,5.74,26,19,232,0.26,0.12,1.9,4,0,1,0,110,339,3756.48,37.95,680.78,37.27,14.09,23672,9358,9240,-444.77,0.48,0,0.04,0.04,0.26,-2.68,6.41,-97.901,1,4.08,4.75,47,3.79,4.7,219.7,4.16,0.61,6.3,1243,211
4017377,2000,1,3,19,18,20,83,7.28,2,-46,204,-0.05,-0.56,2.1,4,0,1,0,96,339,3771.13,37.95,679.77,37.28,14.09,24696,9270,9240,-444.77,0.48,0,0,0.01,0.25,-0.43,4.58,-98.451,1,4.08,4.71,47.3,3.88,4.68,278.5,4.16,0.67,6.7,1244,170
4017596,2000,1,3,19,18,20,83,4.69,31,-19,199,0.34,-0.09,1.97,4,0,1,0,287,339,3787.43,37.94,678.63,,14.1,24440,9437,-19681,-444.77,0.48,0,0.06,0.04,0.25,-0.61,0.61,-98.631,1,4.08,4.72,46.9,3.83,4.72,245.4,4.16,0.6,6.3,1245,211
4017858,2000,1,3,19,18,20,83,6.4,11,4,204,-0.03,-0.11,1.94,4,0,1,0,500,339,3800.63,37.94,677.72,37.29,14.09,25208,9300,9240,-444.77,0.48,0,0.03,0.02,0.25,0.49,1.77,-96.981,1,4.08,4.73,46.9,3.85,4.72,214.6,4.16,0.61,6.4,1246,168
4018077,2000,1,3,19,18,21,83,4.54,27,-37,176,0.17,-0.49,1.61,4,0,1,0,635,339,3815.94,37.94,676.66,37.29,14.12,25208,9300,-474,-444.77,0.48,0,0.01,0.04,0.25,-1.04,-1.22,-96.981,1,4.08,4.76,47.1,3.81,4.7,219.2,4.16,0.63,6.3,1247,211
4018337,2000,1,3,19,18,21,83,4.28,9,-41,190,0.07,-0.36,1.89,4,0,1,0,623,339,3827.94,37.94,675.83,37.23,14.1,19832,9468,-12003,-444.77,0.48,0,0.01,0.02,0.24,-4.03,-2.44,-96.441,1,4.08,4.74,47.6,3.91,4.74,307.6,4.16,0.58,5.9,1248,170
4018556,2000,1,3,19,18,21,83,5.07,2,-19,182,0,-0.14,1.8,4,0,1,0,495,339,3839.38,37.94,675.04,37.27,14.1,23416,9241,17946,-444.77,0.48,0,0.04,0.03,0.24,-4.33,-2.93,-96.981,1,4.08,4.72,47.5,3.88,4.71,190.3,4.16,0.6,6.3,1249,168
4018776,2000,1,3,19,18,21,83,2.04,2,16,195,-0.06,-0.02,1.77,4,0,1,0,146,339,3853.03,37.92,674.09,37.3,14.08,26232,9360,-4081,-444.77,0.48,0,0.03,0.02,0.23,,-0.43,-95.521,1,4.08,4.69,47.8,3.78,4.71,274,4.16,0.62,6.7,1250,256
4019081,2000,1,3,19,18,22,83,1.14,71,3,187,0.57,-0.02,1.58,4,0,1,0,39,339,3863.24,37.92,673.4,37.26,14.07,22136,9301,26376,-444.77,0.48,0,0.03,0.07,0.23,-6.1,0.67,-93.081,1,4.08,4.71,47.3,3.9,4.73,279.3,4.16,0.68,7.2,1251,168
4019298,2000,1,3,19,18,22,83,3.9,13,-23,182,0.04,-0.37,1.8,4,0,1,0,76,339,3875.11,37.92,672.58,37.29,14.04,25208,9044,2037,-444.77,0.48,0,-0.02,0.03,0.23,-7.26,1.77,-92.961,1,4.08,4.7,46.9,3.83,4.69,177,4.16,0.58,5.8,1252,213
4019560,2000,1,3,19,18,22,83,2.71,27,-17,174,0.34,-0.03,1.56,4,0,1,0,105,339,3884.13,37.92,671.96,37.26,14.05,22904,9083,6395,-444.77,0.48,0,0.04,0.03,0.23,-7.45,2.69,-92.351,1,4.08,4.69,47.6,3.9,4.68,146.1,4.16,0.6,6.1,1253,168
4019779,2000,1,3,19,18,22,83,3.25,30,-5,172,0.26,-0.08,1.57,4,0,1,0,130,339,3893.86,37.91,671.29,37.27,14.03,23928,9151,-531,-444.77,0.48,0,0.02,0.04,0.22,-4.46,6.41,-90.581,1,4.08,4.7,46.7,3.82,4.72,250.9,4.16,0.61,6.3,1254,211
4020041,2000,1,3,19,18,23,83,2.64,34,-15,171,0.37,-0.19,1.62,4,0,1,0,139,339,3902.68,37.9,670.68,37.28,14.02,24440,9181,17637,-444.77,0.48,0,0.02,0.04,0.22,-3.72,5.31,-91.001,1,4.08,4.73,47.5,3.86,4.7,219.8,,0.62,6,1255,209
4020301,2000,1,3,19,18,23,83,6.88,26,-9,166,0.22,-0.01,1.64,4,0,1,0,130,339,3910.41,37.9,670.15,37.3,13.99,26744,9103,10195,-444.77,0.48,0,0.02,0.02,0.22,-3.85,5.74,-88.871,1,4.08,4.69,47,3.88,4.73,225,4.16,0.62,6.1,1256,209
4020561,2000,1,3,19,18,23,83,6.17,-23,-19,165,-0.2,-0.25,1.46,4,0,1,0,105,339,3918.38,37.89,669.6,37.28,13.95,24440,9181,30392,-444.77,0.48,0,0,0.01,0.21,-0.06,4.07,-89.361,1,4.08,4.71,46.7,3.91,4.7,145.5,4.16,0.67,6.7,1257,211
4020824,2000,1,3,19,18,23,83,6.95,10,-12,165,0.1,-0.14,1.49,4,0,1,0,112,339,3924.04,37.9,669.22,37.29,13.94,25464,9061,-335,-444.77,0.48,0,0.02,0.03,0.21,0.55,2.26,-88.681,1,4.08,4.71,47.3,3.84,4.69,222.5,4.16,0.69,7,1258,168
4021041,2000,1,3,19,18,24,83,6.5,-9,-19,163,-0.11,-0.2,1.45,4,0,1,0,335,339,3929.78,37.89,668.82,37.3,0.24,26232,9104,27062,-444.77,0.48,0,0.02,0.01,0.21,0.73,1.46,-86.981,1,4.08,4.72,47,3.91,4.73,232.7,4.16,0.62,5.9,1259,213
4021303,2000,1,3,19,18,24,83,7.05,-15,-23,161,-0.21,-0.26,1.45,4,0,1,0,538,339,3935.09,37.89,668.46,37.28,13.9,24696,9014,13468,-444.77,0.48,0,0.02,0.01,0.21,2.2,-0.12,-87.041,1,4.08,4.75,47.5,3.88,4.71,157,4.16,0.66,6.9,1260,168
4021522,2000,1,3,19,18,24,83,5.69,29,-13,164,,-0.08,1.51,4,0,1,0,677,339,3938.89,37.88,668.2,37.28,13.85,24696,9014,11894,-444.77,0.48,0,0.02,0.04,0.21,0.06,-2.26,-86.611,1,4.08,4.76,47.2,3.81,4.74,168.6,4.16,0.63,6.2,1261,211
4021784,2000,1,3,19,18,24,83,6.35,6,6,159,0.06,0,1.5,4,0,1,0,674,339,3942.06,37.88,667.98,37.28,13.85,24696,9014,12664,-444.77,0.48,0,0.03,0.01,0.2,-3.05,-0.98,-84.961,1,4.08,4.66,47.5,3.85,4.73,242.8,4.16,0.66,6.6,1262,209
4022044,2000,1,3,19,18,25,83,6.39,-4,-21,158,-0.06,-0.28,1.48,4,0,1,0,564,339,3945.39,37.88,667.75,37.29,13.83,25208,9044,17257,-444.77,0.48,0,0,0.02,0.2,-2.62,-1.1,-85.271,1,4.08,4.7,47.6,3.84,4.75,212.1,4.16,0.6,6.3,1263,168
4022261,2000,1,3,19,18,25,83,4.8,20,-35,139,0.13,-0.35,1.42,4,0,1,0,325,338,3946.8,37.87,667.65,37.27,13.78,23928,9151,333,-444.77,0.48,0,0.02,0.04,0.2,-4.94,,-85.691,1,4.08,4.69,47.2,3.87,4.71,173.9,4.16,0.69,6.5,1264,213
4022523,2000,1,3,19,18,25,83,5.85,21,-9,152,0.23,0,1.45,4,0,1,0,84,338,3948.57,37.86,667.53,37.27,13.76,23928,9151,24379,-444.77,0.48,0,0.02,0.03,0.2,-7.26,-0.06,-84.111,1,4.08,4.71,47.1,3.88,4.71,276.2,4.16,0.66,6.5,1265,211
4022784,2000,1,3,19,18,25,83,1282.48,50,-319,-730,-9.67,0.6,-13.5,7,1,1,0,41,334,4234.58,37.94,648.53,37.44,13.7,-25480,9161,-23529,-444.77,0.48,0,0.27,-0.03,-0.42,-7.2,12.82,-68.241,1,4.08,4.69,47.4,3.92,4.72,205.6,4.16,0.62,6.2,1266,210
4023044,2000,1,3,19,18,26,83,525.68,195,1843,3091,0.04,12.12,8.5,2,0,0,0,1000,339,3994.34,37.81,664.38,37.28,13.87,24440,9181,-21370,-444.77,0.48,0,2.97,1.25,3.15,143.07,-271.85,263.491,1,4.08,4.69,47.1,3.78,4.7,301.1,4.16,0.74,7.3,1267,211
4023304,2000,1,3,19,18,26,83,-27.17,1064,-2741,5250,1.26,-24.39,50.28,2,0,0,0,1003,350,4148.94,37.6,653.87,36.9,13.83,-11913,8993,-18836,-444.77,0.48,0,-2.87,-1.76,13.93,-304.75,-897.34,-369.451,1,4.08,4.62,47.3,3.81,4.74,135.9,4.16,0.62,6.2,1268,211
4023564,2000,1,3,19,18,26,83,-1664.4,-2593,-2487,5250,-21.6,-22.93,50.28,2,0,0,0,1001,352,4030.74,37.29,661.48,36.58,13.39,22647,8915,25162,-444.77,0.48,0,0.64,0.1,12.62,399.48,-944.03,-326.781,1,4.08,4.71,46.8,3.85,4.72,239.5,4.16,,6.1,1269,211
4023824,2000,1,3,19,18,26,83,-607.65,886,-886,5216,4.9,-8.89,50.28,2,0,0,0,1012,355,3980.33,37.06,664.68,36.44,12.75,9591,8295,1958,-444.77,0.48,0,1.04,0.66,6.01,-385.62,-292.72,-513.611,1,4.08,4.69,47.2,3.94,4.67,272.2,4.16,0.66,6.8,1270,211
4024084,2000,1,3,19,18,27,83,-351.66,-4,431,2992,-0.73,4.08,28.11,2,0,0,0,999,356,3971.31,36.86,665.12,36.31,12.13,-3466,7936,26894,-444.77,0.48,0,0.56,-0.34,2.11,-113.22,-15.5,-290.531,1,4.08,4.64,47.6,3.93,4.71,129.1,4.16,0.63,6.1,1271,213
4024346,2000,1,3,19,18,27,83,-59.65,245,-80,1732,2.45,-0.98,16.3,2,0,0,0,1002,357,3934.72,36.69,667.46,36.24,11.49,-10122,7517,2926,-444.77,0.48,0,0,0.29,1.78,-179.02,206.18,-232.361,1,4.08,4.67,46.9,3.88,4.7,184.8,4.16,0.58,6.2,1272,256
4024651,2000,1,3,19,18,27,83,10,-174,-197,1426,-0.86,-1.85,12.32,2,0,0,0,1006,357,3937.88,36.63,667.19,36.23,11,-10890,7184,-3281,-444.77,0.48,0,-0.09,-0.12,1.2,-237.73,-98.75,-248.901,1,4.08,4.7,46.7,3.89,4.71,181.5,4.16,0.64,6.3,1273,168
4024870,2000,1,3,19,18,28,83,31.79,-176,-70,1266,-0.72,-0.76,11.76,6,0,0,0,1013,357,3924.7,36.55,668.02,36.2,10.54,-13450,6989,-2816,-444.77,0.48,0,0.21,-0.05,1.13,112.06,-263.24,-140.321,1,4.08,4.64,47.2,3.94,4.71,195.8,4.16,0.66,6.4,1274,211
4025133,2000,1,3,19,18,28,83,72.92,22,39,1198,0.09,,11.3,6,0,0,0,1006,356,3931.82,36.47,667.46,36.01,10.09,-31626,6494,-28970,-444.77,0.48,0,0.05,0.12,1.19,156.62,144.9,-156.981,1,4.08,4.7,47.2,3.88,4.71,220.9,4.16,0.66,6.8,1275,211
4025395,2000,1,3,19,18,28,83,68.13,235,-84,959,2.2,-0.77,9.14,6,0,0,0,999,357,3930.58,36.39,667.48,36,9.8,-32394,6571,-2025,-444.77,0.48,0,0,0.29,1.08,-181.95,157.65,-141.111,1,4.08,4.7,46.6,3.82,4.65,183.6,4.16,0.69,6.59,1276,168
4025612,2000,1,3,19,18,28,83,50.45,-48,-219,952,-0.42,-2.06,8.9,6,0,0,0,997,357,3913.38,36.38,668.64,35.99,9.44,31606,6386,9004,-444.77,0.48,0,-0.19,0.02,0.84,-196.11,-14.95,-113.401,1,4.08,4.68,46.9,3.82,4.7,135.8,4.16,0.61,6.4,1277,213
4025874,2000,1,3,19,18,29,83,54.39,-86,55,852,-0.99,0.65,7.91,6,0,0,0,1001,358,3948.19,35.29,665.33,35.97,9.09,30326,6078,-2999,-444.77,0.48,0,0.14,-0.1,0.83,-66.77,-60.12,1,1,4.08,4.69,47.2,3.9,4.69,256.4,4.16,0.66,6.6,1278,211
4026136,2000,1,3,19,18,29,83,99.51,-109,-34,904,-1.02,-0.38,8.85,6,0,0,0,999,358,3928.31,35.56,666.92,35.96,8.88,29046,5673,-15423,-444.77,0.48,0,-0.05,-0.05,0.9,135.8,109.92,-60.671,1,4.08,4.69,46.8,3.9,4.69,179,4.16,0.6,6.1,1279,168
4026353,2000,1,3,19,18,29,83,85.01,91,-121,984,0.83,-1.12,9.46,6,0,0,0,999,358,3903.05,36.28,669.26,35.91,8.66,23926,5842,28720,-444.77,0.48,0,-0.04,0.13,0.93,51.33,-117.98,-26.671,1,4.08,4.69,46.5,3.92,4.7,206.8,4.16,0.64,6.2,1280,168
4026572,2000,1,3,19,18,29,83,89.41,71,86,859,0.7,0.85,8.31,6,0,0,0,1000,360,3904.22,36.24,669.14,35.89,8.54,22646,5415,23008,-444.77,0.48,0,0.11,0.1,0.98,-141.91,28.5,9.031,1,4.08,4.67,47.5,3.86,4.7,144.4,4.16,0.59,5.6,1281,168
4026789,2000,1,3,19,18,29,83,63.04,-189,-138,940,-1.87,-1.34,8.89,6,0,0,0,999,361,3909.14,36.18,668.76,35.93,8.23,25718,5535,19479,-444.77,0.48,0,-0.11,-0.16,0.74,-8.54,73.61,63.961,1,4.08,4.71,47.3,3.86,4.72,215.8,4.16,0.63,6.1,1282,215
4027054,2000,1,3,19,18,30,83,72.62,-55,-58,1096,-0.63,-0.46,10.28,0,0,0,0,1000,362,3892.71,36.21,669.91,35.88,8.05,21622,5210,-3422,-444.77,0.48,0,0.03,0.1,1.09,202.15,-71.04,121.281,1,4.08,4.71,46.9,3.93,4.67,191.4,4.16,0.67,,1283,211
4027316,2000,1,3,19,18,30,83,82.76,100,-18,843,1.08,-0.12,8.52,0,0,0,0,1001,364,3882.3,36.19,670.61,35.83,7.89,16502,5341,8505,-444.77,0.48,0,0.05,0.1,0.89,-101.87,-77.03,113.711,1,4.08,4.65,47.6,3.9,4.7,248.4,4.16,0.64,6.1,1284,211
4027576,2000,1,3,19,18,30,83,77.77,-57,72,958,-0.47,0.72,9.23,0,0,0,0,1000,366,3877.14,36.19,670.96,35.85,7.77,18550,4964,-10006,-444.77,0.48,0,0.11,0,1,-35.22,93.81,140.991,1,4.08,4.66,46.8,3.8,4.66,263.9,4.16,0.58,5.8,1285,168
4027795,2000,1,3,19,18,30,83,75.08,-55,-78,986,-0.44,-0.77,9.31,0,0,0,0,995,368,3876.97,36.17,670.95,35.85,7.66,18550,4964,4001,-444.77,0.48,0,-0.03,-0.01,0.97,45.59,81.97,158.751,1,4.08,4.7,47.3,3.86,4.7,213.7,4.16,0.67,6.7,1286,168
4028012,2000,1,3,19,18,31,83,84.73,37,-83,883,0.28,-0.94,8.56,0,0,0,0,992,369,3870.85,36.14,671.34,35.81,7.55,14454,5020,13401,-444.5,0.48,0,-0.04,0.1,0.99,24.11,-4.76,165.161,1,4.08,4.61,47.3,3.92,4.71,180.6,4.16,0.66,6.6,1287,168
4028231,2000,1,3,19,18,31,83,75.51,-7,-105,1134,-0.09,-0.97,10.91,0,0,0,0,994,369,3867.43,36.09,671.54,35.77,7.49,11126,5004,13873,-444.77,0.48,0,0.01,0,1.1,-29.17,-117.07,132.811,1,4.08,4.68,46.6,3.94,4.72,208.8,4.16,0.7,6.4,1288,168
4028448,2000,1,3,19,18,31,83,80.3,-40,-19,1150,-0.33,-0.16,,0,0,0,0,998,369,3858.82,36.02,672.07,35.72,7.33,6262,4634,-19004,-444.77,0.48,0,0.02,-0.02,1.14,3.78,39.12,107.911,1,4.08,4.7,46.4,3.92,4.66,157.7,4.16,0.63,5.8,1289,256
4028753,2000,1,3,19,18,31,83,70.52,-31,-22,1111,-0.34,-0.18,10.83,0,0,0,0,999,370,3853.13,35.92,672.38,35.49,7.27,-16267,4746,-22366,-444.77,0.48,0,0.03,-0.01,1.15,17.09,-26.12,92.901,1,4.08,4.68,47.3,3.92,4.68,194.8,4.16,0.58,6.2,1290,168
4028983,2000,1,3,19,18,32,83,70.5,-14,4,984,-0.08,0.09,9.61,6,0,0,0,1000,371,3846.3,35.77,672.72,35.34,7.23,-30091,4716,-30588,-444.77,0.48,0,0.05,0,0.99,-14.1,-32.41,85.081,1,4.08,4.68,46.8,3.88,4.65,189.5,4.16,0.61,6.1,1291,168
4029208,2000,1,3,19,18,32,83,75.48,-20,30,976,-0.26,0.35,9.25,6,0,0,0,1000,372,3838.1,35.68,673.21,35.34,7.14,-30859,4640,30284,-444.77,0.48,0,0.06,0.01,0.98,2.08,64.7,74.221,1,4.08,4.69,46.9,3.95,4.65,156.8,4.16,0.58,5.8,1292,205
4029470,2000,1,3,19,18,32,83,64.1,14,-8,1101,0.08,-0.12,10.69,6,0,0,0,999,374,3836.98,35.62,673.24,35.39,7.11,-25227,4792,14132,-444.77,0.48,0,0.04,0.01,1.04,-85.33,54.93,57.801,1,4.08,4.68,47,3.9,4.65,140.7,4.16,0.69,7.1,1293,205
4029732,2000,1,3,19,18,32,83,73.25,-70,-43,1214,-0.7,-0.44,11.71,6,0,0,0,1001,374,3834.89,35.54,673.31,35.27,7.09,28789,4661,23083,,0.48,0,-0.02,-0.03,1.18,47.79,-2.5,47.611,1,4.08,4.69,47.1,3.84,4.71,240.6,4.16,0.63,6.3,1294,160
4029949,2000,1,3,19,18,33,83,69.31,-3,-23,1080,0.01,-0.2,10.24,6,0,0,0,999,375,3825.57,35.45,673.87,35.15,7.05,16501,4848,5906,-444.77,0.48,0,0.07,0.01,1.07,19.47,-98.51,37.231,1,4.08,4.69,46.7,3.85,4.67,228.7,4.16,0.67,6.5,1295,162
4030179,2000,1,3,19,18,33,83,65.86,63,12,1053,0.71,0.06,10.26,6,0,0,0,999,376,3812.14,35.37,674.74,35.2,6.99,21621,4471,12523,-422.32,0.48,0,0.02,0.12,1.05,85.94,66.53,19.101,1,4.08,4.68,46.9,3.91,4.69,245.8,4.16,0.67,6.6,1296,205
4030435,2000,1,3,19,18,33,83,79.39,46,49,1164,0.38,0.47,10.91,6,0,0,0,999,378,3808.69,35.34,674.95,35.23,6.98,24693,4470,-30237,-422.32,0.48,0,0.1,-0.03,1.14,-169.25,29.97,-35.711,1,4.08,4.71,46.7,3.9,4.65,181.4,4.16,0.61,6.2,1297,130
4030695,2000,1,3,19,18,33,83,63.95,-148,-51,1176,-1.39,-0.46,11.44,6,0,0,0,997,378,3809.57,35.33,674.88,35.17,6.95,18805,4472,17358,-422.32,0.48,0,-0.06,0.01,1.12,263.43,95.46,-31.801,1,4.08,4.63,47.3,3.87,4.68,212,4.16,0.63,6.4,1298,168
4030914,2000,1,3,19,18,34,83,63.55,293,-65,921,2.83,-0.59,8.95,6,0,0,0,996,378,3800.34,35.28,675.47,35.15,6.94,17013,4498,-11063,-422.32,0.48,0,0,0.33,1.16,-324.58,-101.01,-40.041,1,,4.71,47,3.88,4.69,211.9,4.16,0.63,6.1,1299,211
4031174,2000,1,3,19,18,34,83,-28.54,-320,1,749,-2.94,-0.04,6.98,4,0,0,0,999,379,3804.38,35.18,675.11,35,6.93,2421,4421,-26428,-422.32,0.48,0,-0.01,-0.24,0.46,-3.42,-58.17,-12.391,1,4.08,4.69,46.7,3.93,4.65,216.5,4.16,0.68,7.2,1300,211
4031436,2000,1,3,19,18,34,83,34.5,-89,48,1402,-0.63,0.61,13.4,4,0,0,0,1000,379,3787.43,35.08,676.2,34.84,6.93,-12940,4402,4035,-422.32,0.48,0,0.12,0.2,1.47,379.94,-47.85,25.511,1,4.08,4.64,47.2,3.85,4.71,230.3,4.16,0.69,6.7,1301,168
4031653,2000,1,3,19,18,34,83,56.66,222,60,961,2.05,0.54,9.39,4,0,0,0,999,381,3777.99,34.97,676.76,34.89,6.92,-8332,4371,11449,-422.32,0.48,0,0.11,0.21,1.18,-165.65,121.58,18.131,1,4.08,4.65,47.1,4.08,4.65,11.3,4.16,0.62,6.7,1302,211
4031916,2000,1,3,19,18,35,83,41.6,-136,-116,1149,-1.11,-1.1,11.04,4,0,0,0,998,382,3778.31,34.91,676.69,34.86,6.89,-10636,4507,4773,-422.32,0.48,0,-0.11,-0.07,1.05,23.86,136.41,8.541,1,4.08,4.68,46.6,3.86,4.66,189,4.16,0.64,6.3,1303,210
4032176,2000,1,3,19,18,35,83,86.17,-2,-206,1144,-0.01,-1.88,11.05,6,0,0,0,995,383,3772.19,34.89,677.1,34.8,6.9,-17036,4554,-1874,-422.32,0.48,0,-0.03,0.03,1.14,-8.91,-266.36,29.541,1,4.08,4.67,47.1,3.95,4.68,151.7,4.16,0.63,6.6,1304,213
4032438,2000,1,3,19,18,35,83,60.97,-70,265,855,-0.71,2.46,7.96,6,0,0,0,1000,383,3765.93,34.85,677.51,34.8,6.9,-17036,4554,-23376,-422.32,0.48,0,0.29,-0.07,1.14,14.1,218.93,23.621,1,4.08,4.66,46.8,3.87,4.67,228.1,4.16,0.6,6.3,1305,211
4032700,2000,1,3,19,18,35,83,23.65,-27,-323,973,-0.28,-3.22,8.56,4,0,0,0,1013,384,3771.54,34.79,677.07,34.75,6.91,-21388,4536,-14670,-422.32,0.48,0,-0.29,0.02,0.68,140.26,-51.33,85.141,1,4.08,4.63,47,3.94,4.71,125.9,4.16,0.65,6.7,1306,211
