timestamp__ms,temp__c,pressure__kpa,accel_x__m_s2,accel_y__m_s2,accel_z__m_s2,gyro_x_dps,gyro_y__dps,gyro_z__dps,e_alt__m,e_vel__m_s,e_acc__m_s2,e_bias,innovation0,innovation1,r1c1,r1c2,r1c3,r2c1,r2c2,r2c3,r3c1,r3c2,r3c3,effort
708862,18.020000457763672,99.7239990234375,0.4977070093154907,1.0815550088882446,9.834500312805176,0.0024429999757558107,0.0048859999515116215,0.019547000527381897,0.103057861328125,0.19990938901901245,0.5740846395492554,9.260415077209473,-0.29962480068206787,0.033499717712402344,1.0,0.0,0.0,0.0,1.0,0.0,0.0,0.0,1.0,0.0
708872,18.020000457763672,99.72200012207031,0.526419997215271,1.1102689504623413,9.79142951965332,0.0024429999757558107,0.0024429999757558107,0.017103999853134155,0.10275730490684509,0.19454896450042725,0.5067576766014099,9.284672737121582,-0.022321991622447968,-0.04306983947753906,1.0,0.0,0.0,0.0,1.0,0.0,0.0,0.0,1.0,0.0
708882,18.010000228881836,99.7229995727539,0.5312060117721558,1.1294119358062744,9.79142951965332,0.0024429999757558107,0.0024429999757558107,0.017103999853134155,0.07656064629554749,0.06531810760498047,0.18848729133605957,9.60294246673584,-0.2700418531894684,-9.5367431640625e-07,1.0,0.0,0.0,0.0,1.0,0.0,0.0,0.0,1.0,0.0
708892,18.020000457763672,99.72100067138672,0.5838479995727539,1.1102689504623413,9.786643981933594,0.0024429999757558107,0.0048859999515116215,0.017103999853134155,0.0777788758277893,0.06985212862491608,0.1902078241109848,9.596436500549316,0.005326800048351288,-0.0047855377197265625,1.0,0.0,0.0,0.0,1.0,0.0,0.0,0.0,1.0,0.0
708902,18.010000228881836,99.72200012207031,0.5934200286865234,1.1341969966888428,9.757929801940918,0.0024429999757558107,0.0024429999757558107,0.019547000527381897,0.08754362165927887,0.11493530869483948,0.26519477367401123,9.492735862731934,0.08682681620121002,-0.02871417999267578,1.0,0.0,0.0,0.0,1.0,0.0,0.0,0.0,1.0,0.0
708912,18.010000228881836,99.72000122070312,0.5886340141296387,1.1485539674758911,9.753144264221191,0.0,0.0024429999757558107,0.017103999853134155,0.09669700264930725,0.15568603575229645,0.3509253263473511,9.40221881866455,0.07660748064517975,-0.004786491394042969,1.0,0.0,0.0,0.0,1.0,0.0,0.0,0.0,1.0,0.0
708922,18.020000457763672,99.7229995727539,0.6269189715385437,1.1389830112457275,9.757929801940918,0.0024429999757558107,0.0024429999757558107,0.014659999869763851,0.053533885627985,-0.05410660803318024,-0.15001428127288818,9.907943725585938,-0.4288988411426544,0.0047855377197265625,1.0,0.0,0.0,0.0,1.0,0.0,0.0,0.0,1.0,0.0
708932,18.010000228881836,99.7239990234375,0.6173480153083801,1.1389830112457275,9.767500877380371,0.0,0.0048859999515116215,0.012217000126838684,0.056091438978910446,-0.04079724848270416,-0.1058025136590004,9.873302459716797,0.02977835014462471,0.009571075439453125,1.0,0.0,0.0,0.0,1.0,0.0,0.0,0.0,1.0,0.0
708942,18.020000457763672,99.7229995727539,0.6221330165863037,1.1341969966888428,9.748358726501465,0.0,0.007329999934881926,0.007329999934881926,0.07572464644908905,0.05372333154082298,0.10247661918401718,9.645882606506348,0.19218559563159943,-0.019141197204589844,1.0,0.0,0.0,0.0,1.0,0.0,0.0,0.0,1.0,0.0
708952,18.010000228881836,99.72100067138672,0.6269189715385437,1.1389830112457275,9.81535816192627,0.0,0.007329999934881926,0.0048859999515116215,0.08555527776479721,0.09903322160243988,0.27123382687568665,9.544122695922852,0.08904671669006348,0.06699848175048828,1.0,0.0,0.0,0.0,1.0,0.0,0.0,0.0,1.0,0.0
708962,18.010000228881836,99.72000122070312,0.6460620164871216,1.1581259965896606,9.796215057373047,-0.0024429999757558107,0.007329999934881926,0.0,0.07753036916255951,0.05869756266474724,0.15098628401756287,9.64522933959961,-0.08655916899442673,-0.019141197204589844,1.0,0.0,0.0,0.0,1.0,0.0,0.0,0.0,1.0,0.0
708972,18.020000457763672,99.72200012207031,0.6173480153083801,1.1389830112457275,9.79142951965332,0.0,0.007329999934881926,-0.0024429999757558107,0.05273233354091644,-0.06086055934429169,-0.14048731327056885,9.931916236877441,-0.24343861639499664,-0.004786491394042969,1.0,0.0,0.0,0.0,1.0,0.0,0.0,0.0,1.0,0.0
708982,18.010000228881836,99.7239990234375,0.6269189715385437,1.1389830112457275,9.767500877380371,0.0,0.007329999934881926,0.0,0.03806990385055542,-0.12923851609230042,-0.3219926357269287,10.089493751525879,-0.13466675579547882,-0.023927688598632812,1.0,0.0,0.0,0.0,1.0,0.0,0.0,0.0,1.0,0.0
708992,18.010000228881836,99.7239990234375,0.6221330165863037,1.1437690258026123,9.786643981933594,0.0,0.00977300014346838,0.0024429999757558107,0.03292691335082054,-0.15074080228805542,-0.3470880687236786,10.133731842041016,-0.03676141798496246,0.019143104553222656,1.0,0.0,0.0,0.0,1.0,0.0,0.0,0.0,1.0,0.0
709002,18.020000457763672,99.7229995727539,0.6221330165863037,1.1581259965896606,9.762716293334961,0.0,0.00977300014346838,0.0048859999515116215,0.00225023552775383,-0.2932037115097046,-0.6992687582969666,10.461984634399414,-0.2794795334339142,-0.023927688598632812,1.0,0.0,0.0,0.0,1.0,0.0,0.0,0.0,1.0,0.0
709012,18.020000457763672,99.72000122070312,0.5982049703598022,1.1294119358062744,9.767500877380371,0.0,0.00977300014346838,0.00977300014346838,0.007990901358425617,-0.2586795389652252,-0.5963225960731506,10.363822937011719,0.08348044008016586,0.004784584045410156,1.0,0.0,0.0,0.0,1.0,0.0,0.0,0.0,1.0,0.0
709022,18.010000228881836,99.72599792480469,0.6077759861946106,1.1198400259017944,9.77707290649414,0.0,0.012217000126838684,0.012217000126838684,-0.038283951580524445,-0.47279882431030273,-1.080507755279541,10.85758113861084,-0.4185517728328705,0.009572982788085938,1.0,0.0,0.0,0.0,1.0,0.0,0.0,0.0,1.0,0.0
709032,18.010000228881836,99.72599792480469,0.5886340141296387,1.1054840087890625,9.734002113342285,-0.0024429999757558107,0.012217000126838684,0.012217000126838684,-0.055817365646362305,-0.544400691986084,-1.265607476234436,10.999610900878906,-0.12224775552749634,-0.04307079315185547,1.0,0.0,0.0,0.0,1.0,0.0,0.0,0.0,1.0,0.0
709042,18.010000228881836,99.7229995727539,0.564706027507782,1.1054840087890625,9.767500877380371,-0.0024429999757558107,0.012217000126838684,0.00977300014346838,-0.06356091052293777,-0.5677189230918884,-1.2589730024337769,11.026473999023438,-0.021439019590616226,0.03349781036376953,1.0,0.0,0.0,0.0,1.0,0.0,0.0,0.0,1.0,0.0
709052,18.010000228881836,99.72200012207031,0.5455629825592041,1.1006979942321777,9.824929237365723,-0.0024429999757558107,0.012217000126838684,0.007329999934881926,-0.05343950167298317,-0.5046831369400024,-1.0250575542449951,10.84998607635498,0.152064710855484,0.05742835998535156,1.0,0.0,0.0,0.0,1.0,0.0,0.0,0.0,1.0,0.0
709062,18.010000228881836,99.72000122070312,0.5742769837379456,1.062412977218628,9.748358726501465,-0.0024429999757558107,0.012217000126838684,0.007329999934881926,-0.00931171327829361,-0.2802320122718811,-0.5417681932449341,10.290127754211426,0.4719287157058716,-0.0765695571899414,1.0,0.0,0.0,0.0,1.0,0.0,0.0,0.0,1.0,0.0
709072,18.010000228881836,99.71600341796875,0.46899300813674927,1.0815550088882446,9.757929801940918,0.0,0.012217000126838684,0.00977300014346838,0.040833570063114166,-0.03307417035102844,0.06591665744781494,9.692012786865234,0.5078686475753784,0.009570121765136719,1.0,0.0,0.0,0.0,1.0,0.0,0.0,0.0,1.0,0.0
709082,18.010000228881836,99.7239990234375,0.5551339983940125,1.0576269626617432,9.954141616821289,0.0,0.012217000126838684,0.012217000126838684,0.0017939768731594086,-0.21698880195617676,-0.1846325397491455,10.138772010803223,-0.37113356590270996,0.1962118148803711,1.0,0.0,0.0,0.0,1.0,0.0,0.0,0.0,1.0,0.0
709092,18.010000228881836,99.71900177001953,0.4642069935798645,1.0001989603042603,10.26520824432373,0.0,0.014659999869763851,0.00977300014346838,-0.0003449691866990179,-0.21864356100559235,0.11207377910614014,10.153130531311035,0.0003851427463814616,0.3110685348510742,1.0,0.0,0.0,0.0,1.0,0.0,0.0,0.0,1.0,0.0
709102,18.020000457763672,99.81199645996094,0.3445659875869751,0.5359920263290405,14.280364990234375,0.051311999559402466,-0.46914398670196533,0.019547000527381897,-0.760859489440918,-3.8331453800201416,-4.632554054260254,18.912872314453125,-7.270148754119873,4.01516056060791,1.0,0.0,0.0,0.0,1.0,0.0,0.0,0.0,1.0,0.0
709112,18.010000228881836,99.81800079345703,-4.867001056671143,8.638089179992676,80.72904968261719,-0.0879639983177185,-0.15393799543380737,0.1417199969291687,-1.5522181987762451,-7.468682765960693,50.145263671875,30.58303451538086,-7.217056751251221,66.44873046875,1.0,0.0,0.0,0.0,1.0,0.0,0.0,0.0,1.0,0.0
709122,18.020000457763672,99.72599792480469,0.15313999354839325,-1.473978042602539,90.00363159179688,-0.03420799970626831,-0.007329999934881926,0.0048859999515116215,-1.4722038507461548,-6.241590976715088,60.69847869873047,29.30504608154297,1.4590840339660645,9.27532958984375,1.0,0.0,0.0,0.0,1.0,0.0,0.0,0.0,1.0,0.0
709132,18.020000457763672,99.7020034790039,-0.06699900329113007,1.4261219501495361,85.33283996582031,-0.11239899694919586,0.0048859999515116215,-0.15882399678230286,-1.1821911334991455,-3.9687492847442627,60.1981201171875,25.13477325439453,3.3496389389038086,-4.670684814453125,1.0,0.0,0.0,0.0,1.0,0.0,0.0,0.0,1.0,0.0
709142,18.020000457763672,99.697998046875,2.249253034591675,0.9810569882392883,85.70611572265625,-0.10995499789714813,-0.026877999305725098,-0.2932150065898895,-0.8762173652648926,-1.7330570220947266,64.42524719238281,21.280866622924805,3.2850003242492676,0.37322235107421875,1.0,0.0,0.0,0.0,1.0,0.0,0.0,0.0,1.0,0.0
709152,18.020000457763672,99.7020034790039,1.0767699480056763,2.464607000350952,85.61040496826172,-0.06108599901199341,-0.02932099997997284,-0.5155699849128723,-0.6336753964424133,0.1348710060119629,67.23404693603516,18.376359939575195,2.460517168045044,-0.09571075439453125,1.0,0.0,0.0,0.0,1.0,0.0,0.0,0.0,1.0,0.0
709162,18.010000228881836,99.7509994506836,0.9571290016174316,0.8135589957237244,86.41439819335938,-0.046424999833106995,-0.012217000126838684,-0.657289981842041,-0.813359797000885,-0.07195580005645752,65.9162368774414,20.49815559387207,-1.767794132232666,0.8039932250976562,1.0,0.0,0.0,0.0,1.0,0.0,0.0,0.0,1.0,0.0
709172,18.020000457763672,99.72599792480469,1.3256230354309082,1.6366900205612183,87.07003021240234,-0.03176400065422058,-0.04398199915885925,-0.6108649969100952,-0.760699450969696,0.8259999752044678,67.10655975341797,19.96346664428711,0.4801560640335083,0.6556396484375,1.0,0.0,0.0,0.0,1.0,0.0,0.0,0.0,1.0,0.0
709182,18.010000228881836,99.7229995727539,1.842473030090332,2.158324956893921,85.28498077392578,0.10018099844455719,-0.06841599941253662,-0.5913169980049133,-0.7054358124732971,1.7051740884780884,65.89972686767578,19.38527488708496,0.41845667362213135,-1.7850418090820312,1.0,0.0,0.0,0.0,1.0,0.0,0.0,0.0,1.0,0.0
709192,18.010000228881836,99.7030029296875,-0.4067789912223816,1.8089730739593506,84.08856964111328,0.07818999886512756,-0.07818999886512756,-0.586430013179779,-0.44984567165374756,3.485776901245117,67.4183349609375,16.670246124267578,2.255279541015625,-1.1964340209960938,1.0,0.0,0.0,0.0,1.0,0.0,0.0,0.0,1.0,0.0
709202,18.010000228881836,99.69999694824219,0.6843469738960266,1.0576269626617432,85.28498077392578,0.12461599707603455,-0.08552099764347076,-0.750141978263855,-0.17904473841190338,5.268830299377441,71.18563079833984,14.099342346191406,2.2296712398529053,1.1964035034179688,1.0,0.0,0.0,0.0,1.0,0.0,0.0,0.0,1.0,0.0
709212,18.020000457763672,99.70899963378906,3.005384922027588,1.2921240329742432,85.84968566894531,0.18814599514007568,-0.10995499789714813,-0.8405500054359436,0.0020641908049583435,6.57600736618042,73.13427734375,12.715402603149414,1.1970463991165161,0.5647125244140625,1.0,0.0,0.0,0.0,1.0,0.0,0.0,0.0,1.0,0.0
709222,18.020000457763672,99.697998046875,0.31585198640823364,2.6656041145324707,83.70093536376953,0.13927699625492096,-0.09773799777030945,-1.028696060180664,0.2709057927131653,8.258177757263184,73.34121704101562,10.359745979309082,1.9118869304656982,-2.14874267578125,1.0,0.0,0.0,0.0,1.0,0.0,0.0,0.0,1.0,0.0
709232,18.010000228881836,99.74500274658203,-0.07178399711847305,-1.4021940231323242,84.20821380615234,0.053755998611450195,-0.06352899968624115,-1.1362090110778809,0.10438680648803711,7.7864298820495605,70.9682388305664,13.239969253540039,-2.423286199569702,0.5072479248046875,1.0,0.0,0.0,0.0,1.0,0.0,0.0,0.0,1.0,0.0
709242,18.010000228881836,99.73600006103516,-2.7278170585632324,-2.770887851715088,82.50452423095703,-0.017103999853134155,-0.019547000527381897,-1.1679739952087402,0.05436651408672333,7.8694586753845215,67.8606185913086,14.643927574157715,-1.260048747062683,-1.7036819458007812,1.0,0.0,0.0,0.0,1.0,0.0,0.0,0.0,1.0,0.0
709252,18.010000228881836,99.70500183105469,0.5455629825592041,-3.4504499435424805,83.80622100830078,-0.07330299913883209,-0.007329999934881926,-1.028696060180664,0.28600406646728516,9.26109790802002,70.79008483886719,13.016119956970215,1.4337363243103027,1.3016738891601562,1.0,0.0,0.0,0.0,1.0,0.0,0.0,0.0,1.0,0.0
709262,18.020000457763672,99.69999694824219,2.0721840858459473,-1.2299100160598755,83.99285888671875,-0.051311999559402466,-0.017103999853134155,-0.8112279772758484,0.514686644077301,10.600892066955566,72.4653549194336,11.527503967285156,1.2705858945846558,0.18665313720703125,1.0,0.0,0.0,0.0,1.0,0.0,0.0,0.0,1.0,0.0
709272,18.010000228881836,99.70899963378906,0.27278101444244385,1.6462609767913818,83.54300689697266,-0.08307699859142303,0.012217000126838684,-0.679282009601593,0.6712501049041748,11.549306869506836,72.56721496582031,10.975797653198242,0.44993042945861816,-0.44985198974609375,1.0,0.0,0.0,0.0,1.0,0.0,0.0,0.0,1.0,0.0
709282,18.010000228881836,99.70600128173828,-0.7944170236587524,2.976670980453491,82.9687271118164,-0.07818999886512756,0.024434000253677368,-0.801455020904541,0.8544883728027344,12.58067798614502,72.7447509765625,10.223983764648438,0.6146882772445679,-0.5742874145507812,1.0,0.0,0.0,0.0,1.0,0.0,0.0,0.0,1.0,0.0
709292,18.010000228881836,99.70999908447266,2.7278170585632324,0.39720800518989563,85.00741577148438,0.07330299913883209,-0.03176400065422058,-0.8161150217056274,0.9330310821533203,13.065435409545898,74.11119079589844,10.89620590209961,-0.4879912734031677,2.0386810302734375,1.0,0.0,0.0,0.0,1.0,0.0,0.0,0.0,1.0,0.0
709302,18.010000228881836,99.697998046875,1.7611169815063477,0.37806499004364014,85.10791778564453,0.08063399791717529,-0.02932099997997284,-0.7941240072250366,1.171567440032959,14.303245544433594,75.384033203125,9.723883628845215,0.9987406730651855,0.10051727294921875,1.0,0.0,0.0,0.0,1.0,0.0,0.0,0.0,1.0,0.0
709312,18.010000228881836,99.74099731445312,1.497905969619751,1.5314059257507324,84.5719223022461,0.13194599747657776,-0.05619899928569794,-0.708603024482727,0.9998037815093994,13.538213729858398,71.27404022216797,13.29788589477539,-3.054086685180664,-0.5359954833984375,1.0,0.0,0.0,0.0,1.0,0.0,0.0,0.0,1.0,0.0
709322,18.010000228881836,99.70500183105469,-1.8472590446472168,1.9333999156951904,84.21778106689453,0.19791999459266663,-0.058642998337745667,-0.6646209955215454,1.1837522983551025,14.465519905090332,71.44525146484375,12.772528648376465,0.4314408302307129,-0.35414886474609375,1.0,0.0,0.0,0.0,1.0,0.0,0.0,0.0,1.0,0.0
709332,18.020000457763672,99.69200134277344,3.115454912185669,-3.804586887359619,86.14640045166016,0.1343899965286255,-0.09773799777030945,-0.4349350035190582,1.4516552686691284,15.750567436218262,74.63424682617188,11.51213264465332,1.147329330444336,1.928619384765625,1.0,0.0,0.0,0.0,1.0,0.0,0.0,0.0,1.0,0.0
709342,18.010000228881836,99.68599700927734,0.23928199708461761,1.9812569618225098,83.45207977294922,0.16126799583435059,-0.10262499749660492,-0.2981019914150238,1.7291239500045776,17.051084518432617,73.38159942626953,10.070515632629395,1.1143107414245605,-2.6942977905273438,1.0,0.0,0.0,0.0,1.0,0.0,0.0,0.0,1.0,0.0
709352,18.010000228881836,99.70800018310547,0.9044860005378723,-0.4977070093154907,88.6445083618164,0.17837199568748474,-0.10262499749660492,-0.2834410071372986,1.8168460130691528,17.372682571411133,77.34977722167969,11.294672012329102,-0.828871488571167,5.192390441894531,1.0,0.0,0.0,0.0,1.0,0.0,0.0,0.0,1.0,0.0
709362,18.020000457763672,99.69300079345703,1.5601199865341187,-0.7082750201225281,86.52446746826172,0.15149399638175964,-0.12950299680233002,-0.09040799736976624,2.0536296367645264,18.428386688232422,75.99956512451172,10.524930000305176,0.5674493312835693,-2.1199798583984375,0.9999985694885254,0.0009602086502127349,-0.0013765086187049747,-0.0009622981888242066,0.9999983906745911,-0.0015113428235054016,0.0013750485377386212,0.0015126713551580906,0.9999979138374329,0.0
709372,18.010000228881836,99.68800354003906,0.8183450102806091,1.1581259965896606,86.2612533569336,0.15882399678230286,-0.1270589977502823,-0.08307699859142303,2.3182079792022705,19.553098678588867,76.6131820678711,9.648069381713867,0.7333536148071289,-0.26324462890625,0.9999945759773254,0.001844895421527326,-0.0027300675865262747,-0.0018533510155975819,0.9999935030937195,-0.0030947434715926647,0.002724334131926298,0.0030997919384390116,0.9999915361404419,0.0
709382,18.010000228881836,99.69499969482422,0.7082750201225281,1.1629109382629395,85.90232849121094,0.1417199969291687,-0.14416399598121643,-0.09529399871826172,2.504948854446411,20.259057998657227,76.12875366210938,9.773580551147461,-0.12099361419677734,-0.35892486572265625,0.9999868869781494,0.0028500554617494345,-0.004255767446011305,-0.00286924559623003,0.9999858140945435,-0.004505399148911238,0.004242852330207825,0.004517564084380865,0.9999808669090271,0.0
709392,18.010000228881836,99.67900085449219,1.0289130210876465,0.13399800658226013,86.22775268554688,0.15149399638175964,-0.15149399638175964,-0.10262499749660492,2.816438674926758,21.521413803100586,77.62613677978516,8.60161304473877,1.0075263977050781,0.32541656494140625,0.9999751448631287,0.003925824072211981,-0.005856543779373169,-0.00396103085950017,0.9999741911888123,-0.0060119349509477615,0.0058327894657850266,0.006034983787685633,0.9999648928642273,0.0
709402,18.010000228881836,99.68299865722656,0.693917989730835,0.5359920263290405,87.07959747314453,0.15882399678230286,-0.15638099610805511,-0.09773799777030945,3.072324514389038,22.473087310791016,78.85311126708984,8.22647476196289,0.352710485458374,0.8518447875976562,0.9999595284461975,0.0049497452564537525,-0.007508089765906334,-0.005006741266697645,0.9999587535858154,-0.007589812856167555,0.007470203097909689,0.007627105340361595,0.9999431371688843,0.0
709412,18.020000457763672,99.697998046875,0.6317049860954285,1.1054840087890625,86.5579605102539,0.15393799543380737,-0.17348499596118927,-0.08552099764347076,3.180802583694458,22.688541412353516,76.99821472167969,9.559747695922852,-1.1523165702819824,-0.5216293334960938,0.9999393224716187,0.005849158391356468,-0.00933188945055008,-0.005934234708547592,0.9999408721923828,-0.009116259403526783,0.009278018027544022,0.0091710789129138,0.9999150633811951,0.0
709422,18.020000457763672,99.677001953125,0.8709869980812073,0.636489987373352,87.9505844116211,0.15393799543380737,-0.18081599473953247,-0.04153800010681152,3.460838794708252,23.69358253479004,78.8815689086914,9.069003105163574,0.47264790534973145,1.3926239013671875,0.9999169707298279,0.006305871531367302,-0.011230004951357841,-0.0064254277385771275,0.9999227523803711,-0.010640927590429783,0.01116203423589468,0.010712203569710255,0.9998804926872253,0.0
709432,18.010000228881836,99.67500305175781,0.6747750043869019,1.0145560503005981,87.67301940917969,0.15393799543380737,-0.19058899581432343,-0.026877999305725098,3.737995147705078,24.655359268188477,79.02713012695312,8.645895004272461,0.347780704498291,-0.27754974365234375,0.9998905658721924,0.006613000761717558,-0.01322637964040041,-0.006774011999368668,0.9999030828475952,-0.012164130806922913,0.013144652359187603,0.012252399697899818,0.9998387098312378,0.0
709442,18.020000457763672,99.68000030517578,0.7609170079231262,0.7561309933662415,88.12287139892578,0.15393799543380737,-0.1954759955406189,-0.019547000527381897,3.9517650604248047,25.270484924316406,79.04047393798828,9.082390785217285,-0.35217809677124023,0.4498443603515625,0.9998598694801331,0.006843723356723785,-0.015271974727511406,-0.007052936125546694,0.9998814463615417,-0.013686343096196651,0.015176496468484402,0.01379214134067297,0.9997898936271667,0.0
709452,18.020000457763672,99.67400360107422,0.9188429713249207,0.6891319751739502,88.72107696533203,0.15638099610805511,-0.20524999499320984,-0.012217000126838684,4.200458526611328,26.022924423217773,79.52021789550781,9.200852394104004,-0.07634162902832031,0.5982131958007812,0.9998236894607544,0.006997525226324797,-0.017415691167116165,-0.007263105362653732,0.9998576045036316,-0.01523174811154604,0.017306623980402946,0.01535555999726057,0.999732494354248,0.0
709462,18.010000228881836,99.6729965209961,0.5742769837379456,1.1294119358062744,87.25188446044922,0.15638099610805511,-0.2101369947195053,-0.0048859999515116215,4.438601970672607,26.693870544433594,77.8265380859375,9.425363540649414,-0.24985027313232422,-1.4691848754882812,0.9997825026512146,0.007074657361954451,-0.01960836537182331,-0.007404032628983259,0.9998318552970886,-0.01677638478577137,0.019486380741000175,0.016917921602725983,0.9996671676635742,0.0
709472,18.010000228881836,99.66000366210938,0.7944170236587524,0.8327019810676575,86.9886703491211,0.15638099610805511,-0.21258099377155304,0.0048859999515116215,4.76989221572876,27.760400772094727,78.25899505615234,8.729681015014648,0.5796303749084473,-0.2632293701171875,0.9997367262840271,0.007050640881061554,-0.02182542160153389,-0.007451058831065893,0.9998044371604919,-0.018320590257644653,0.021691979840397835,0.01847839541733265,0.9995941519737244,0.0
709482,18.010000228881836,99.66400146484375,0.7561309933662415,1.0289130210876465,86.32347106933594,0.16371099650859833,-0.222353994846344,0.019547000527381897,5.041733741760254,28.496858596801758,77.51614379882812,8.807332038879395,-0.09276056289672852,-0.6652069091796875,0.9996846914291382,0.006874829530715942,-0.02414042502641678,-0.0073568676598370075,0.9997742176055908,-0.019937364384531975,0.02399790659546852,0.02010868303477764,0.9995099902153015,0.0
709492,18.010000228881836,99.65499877929688,1.2825520038604736,1.095911979675293,87.89794158935547,0.1685979962348938,-0.2370149940252304,0.03176400065422058,5.369348526000977,29.456872940063477,79.45368957519531,8.444231033325195,0.3716926574707031,1.574462890625,0.9996242523193359,0.006571745499968529,-0.026601795107126236,-0.007147377356886864,0.9997411370277405,-0.02160223387181759,0.026452945545315742,0.021784257143735886,0.9994128942489624,0.0
709502,18.010000228881836,99.65299987792969,0.7369890213012695,1.5649049282073975,87.93623352050781,0.1685979962348938,-0.23457199335098267,0.03176400065422058,5.688719272613525,30.350723266601562,79.72554016113281,8.210697174072266,0.19969463348388672,0.0383148193359375,0.9995583891868591,0.00626455619931221,-0.0290380772203207,-0.0069414288736879826,0.9997051954269409,-0.023267727345228195,0.028883757069706917,0.023459022864699364,0.9993076920509338,0.0
709512,18.010000228881836,99.66200256347656,0.8183450102806091,1.0145560503005981,87.46244812011719,0.17348499596118927,-0.2492319941520691,0.03909499943256378,5.905208110809326,30.714080810546875,78.24604034423828,9.216416358947754,-0.8724641799926758,-0.473785400390625,0.9994823336601257,0.0058784023858606815,-0.03162042796611786,-0.006669841706752777,0.9996656775474548,-0.02498159371316433,0.03146301209926605,0.025179564952850342,0.9991878867149353,0.0
709522,18.020000457763672,99.65399932861328,1.2729809284210205,0.9475569725036621,87.0078125,0.1832589954137802,-0.2565630078315735,0.053755998611450195,6.171280860900879,31.282081604003906,77.3048095703125,9.703008651733398,-0.4312272071838379,-0.45464324951171875,0.9993978142738342,0.005337995011359453,-0.034275587648153305,-0.006258141249418259,0.9996213912963867,-0.026793496683239937,0.03411959856748581,0.026991862803697586,0.9990533590316772,0.0
709532,18.010000228881836,99.6500015258789,0.5024920105934143,0.34935200214385986,86.38568115234375,0.17837199568748474,-0.26633700728416443,0.08063399791717529,6.449129581451416,31.869958877563477,76.27346801757812,10.112215995788574,-0.37233591079711914,-0.6221389770507812,0.9993036985397339,0.004525839816778898,-0.03702671453356743,-0.00558520806953311,0.9995765686035156,-0.028557319194078445,0.03688179701566696,0.028744244948029518,0.9989063739776611,0.0
709542,18.010000228881836,99.65399932861328,0.9379860162734985,0.7848449945449829,86.05547332763672,0.18081599473953247,-0.2712239921092987,0.09529399871826172,6.668731689453125,32.14202880859375,74.79618072509766,11.259302139282227,-0.9866085052490234,-0.33020782470703125,0.9991999268531799,0.0035613635554909706,-0.03982491418719292,-0.00477211456745863,0.9995280504226685,-0.03034728392958641,0.039698053151369095,0.03051305189728737,0.9987459182739258,0.0
709552,18.010000228881836,99.63899993896484,0.6173480153083801,0.8614159822463989,86.12247467041016,0.18570199608802795,-0.2834410071372986,0.10018099844455719,6.997094631195068,32.9052619934082,74.89617156982422,11.226303100585938,0.03070545196533203,0.06699371337890625,0.9990824460983276,0.002540983958169818,-0.04274322837591171,-0.003919109236449003,0.9994742274284363,-0.03218778595328331,0.04263898357748985,0.032325755804777145,0.9985676407814026,0.0
709562,18.020000457763672,99.61900329589844,0.7369890213012695,0.7944170236587524,85.88797760009766,0.18570199608802795,-0.2907710075378418,0.10262499749660492,7.470459938049316,34.324432373046875,76.26114654541016,9.626830101013184,1.3476290702819824,-0.2344970703125,0.9989521503448486,0.001490829628892243,-0.045732490718364716,-0.003049524500966072,0.9994162321090698,-0.03403043746948242,0.04565507918596268,0.03413422405719757,0.9983740448951721,0.0
709572,18.020000457763672,99.63300323486328,0.43070799112319946,0.8901299834251404,85.48597717285156,0.1832589954137802,-0.2932150065898895,0.10506799817085266,7.786540508270264,34.93935012817383,75.52827453613281,9.9577054977417,-0.2969794273376465,-0.40200042724609375,0.9988107681274414,0.0004119926306884736,-0.04874375835061073,-0.0021619133185595274,0.9993548393249512,-0.0358511283993721,0.0486975722014904,0.03591384366154671,0.9981677532196045,0.0
709582,18.010000228881836,99.62300109863281,0.46899300813674927,0.04785599932074547,87.2470932006836,0.18814599514007568,-0.2932150065898895,0.10995499789714813,8.161324501037598,35.79768753051758,77.4497299194336,9.797347068786621,0.2072134017944336,1.7611160278320312,0.9986591935157776,-0.0007234616205096245,-0.05175255611538887,-0.0012310836464166641,0.999287486076355,-0.037723273038864136,0.05174301192164421,0.037736374884843826,0.9979472160339355,0.0
709592,18.020000457763672,99.6240005493164,0.21056799590587616,1.464406967163086,84.614990234375,0.18570199608802795,-0.30054500699043274,0.11972899734973907,8.496175765991211,36.44346237182617,74.63795471191406,9.977066993713379,-0.2588310241699219,-2.6320877075195312,0.9984931349754333,-0.0019607723224908113,-0.05483187362551689,-0.00021110517263878137,0.9992166757583618,-0.039573755115270615,0.05486656352877617,0.03952565789222717,0.9977110624313354,0.0
709602,18.010000228881836,99.62699890136719,0.8087739944458008,0.6508470177650452,86.05547332763672,0.17348499596118927,-0.305431991815567,0.12461599707603455,8.77590274810791,36.76818084716797,75.01051330566406,11.044943809509277,-0.8478622436523438,1.4404525756835938,0.9983132481575012,-0.003245521569624543,-0.05795743688941002,0.000850138661917299,0.9991462230682373,-0.04130525141954422,0.05804205313324928,0.04118628799915314,0.9974641799926758,0.0
709612,18.010000228881836,99.625,0.29192399978637695,0.5982049703598022,85.28498077392578,0.18081599473953247,-0.30787599086761475,0.12950299680233002,9.046599388122559,37.037994384765625,73.13850402832031,12.146488189697266,-0.9657554626464844,-0.770477294921875,0.9981203079223633,-0.004588639829307795,-0.061104245483875275,0.0019535282626748085,0.9990682601928711,-0.04311330243945122,0.06124518811702728,0.04291287064552307,0.9971998333930969,0.0
709622,18.010000228881836,99.61100006103516,-0.15792599320411682,0.7752739787101746,85.5960464477539,0.18570199608802795,-0.30298900604248047,0.13927699625492096,9.412077903747559,37.72857666015625,73.33805084228516,12.257996559143066,-0.08204364776611328,0.31105804443359375,0.9979183077812195,-0.0060377540066838264,-0.06419887393712997,0.003150820266455412,0.9989831447601318,-0.044973526149988174,0.06440518796443939,0.044677603989839554,0.9969232082366943,0.0
709632,18.020000457763672,99.60900115966797,0.02871299907565117,0.7609170079231262,85.86882781982422,0.18814599514007568,-0.305431991815567,0.15149399638175964,9.762872695922852,38.31816864013672,73.257080078125,12.611745834350586,-0.2891244888305664,0.2727813720703125,0.9977022409439087,-0.007615857757627964,-0.0673142522573471,0.004463080316781998,0.9988913536071777,-0.04686199501156807,0.06759658455848694,0.04645386338233948,0.9966306686401367,0.0
709642,18.020000457763672,99.61399841308594,0.22013899683952332,0.06699900329113007,86.47660827636719,0.1832589954137802,-0.30298900604248047,0.16126799583435059,10.03925609588623,38.524078369140625,72.58779907226562,13.88880443572998,-1.0589885711669922,0.6077804565429688,0.9974748492240906,-0.009293610230088234,-0.07040192186832428,0.005868140608072281,0.9987958073616028,-0.04870561510324478,0.07076987624168396,0.04816946014761925,0.9963288307189941,0.0
709652,18.010000228881836,99.60800170898438,-0.11006899923086166,0.47856399416923523,85.5960464477539,0.18570199608802795,-0.30298900604248047,0.16615499556064606,10.34035587310791,38.83148193359375,70.75745391845703,14.838608741760254,-0.841456413269043,-0.88055419921875,0.9972347021102905,-0.011027142405509949,-0.07348549365997314,0.007316077593713999,0.9986931681632996,-0.05057789012789726,0.07394728809595108,0.0499003529548645,0.996012806892395,0.0
709662,18.010000228881836,99.59200286865234,0.16749699413776398,0.21056799590587616,85.88318634033203,0.17348499596118927,-0.30298900604248047,0.17348499596118927,10.750649452209473,39.626976013183594,71.23926544189453,14.6439208984375,0.1767873764038086,0.2871246337890625,0.9969812631607056,-0.012829908169806004,-0.07656648755073547,0.008831416256725788,0.9985905289649963,-0.052332572638988495,0.07713008671998978,0.05149835720658302,0.9956900477409363,0.0
709672,18.010000228881836,99.57499694824219,-0.10528399795293808,0.11964099854230881,86.39524841308594,0.17104199528694153,-0.30298900604248047,0.19303299486637115,11.271832466125488,40.91794967651367,73.09810638427734,13.297138214111328,1.1633920669555664,0.5120620727539062,0.996712327003479,-0.014830522239208221,-0.07964370399713516,0.010536346584558487,0.9984815120697021,-0.05406768247485161,0.08032472431659698,0.05305073410272598,0.9953558444976807,0.0
709682,18.010000228881836,99.59200286865234,0.023927999660372734,-0.1435689926147461,86.2134017944336,0.15149399638175964,-0.30298900604248047,0.20036299526691437,11.603757858276367,41.26316833496094,72.0107192993164,14.202678680419922,-0.775670051574707,-0.18184661865234375,0.996428906917572,-0.01689305156469345,-0.08271969854831696,0.012309161014854908,0.9983763694763184,-0.055612847208976746,0.08352496474981308,0.05439601093530655,0.995019793510437,0.0
709692,18.020000457763672,99.58200073242188,-0.5072780251502991,0.03828499838709831,86.2516860961914,0.14660699665546417,-0.30054500699043274,0.21258099377155304,11.990300178527832,41.84172058105469,71.71171569824219,14.5399751663208,-0.2846384048461914,0.03829193115234375,0.9961316585540771,-0.019077258184552193,-0.08576810359954834,0.014200372621417046,0.9982664585113525,-0.05711444467306137,0.08670911192893982,0.055675528943538666,0.9946765303611755,0.0
709702,18.010000228881836,99.572998046875,-0.5886340141296387,0.31106600165367126,86.69674682617188,0.1343899965286255,-0.2956579923629761,0.21746699512004852,12.419279098510742,42.59210205078125,72.21440124511719,14.482338905334473,0.06688404083251953,0.4450531005859375,0.9958238005638123,-0.021303262561559677,-0.08876615017652512,0.016138507053256035,0.9981567859649658,-0.05849909037351608,0.08984886109828949,0.05682219937443733,0.9943329691886902,0.0
709712,18.010000228881836,99.57599639892578,-0.3684940040111542,0.2632099986076355,86.4861831665039,0.12461599707603455,-0.2956579923629761,0.22479799389839172,12.784379959106445,43.007049560546875,71.28585815429688,15.200331687927246,-0.617701530456543,-0.2105560302734375,0.9955004453659058,-0.023596791550517082,-0.09176238626241684,0.018145505338907242,0.9980456829071045,-0.059792034327983856,0.0929940715432167,0.05785787105560303,0.9939839839935303,0.0
709722,18.010000228881836,99.55899810791016,-0.49292099475860596,0.526419997215271,87.0078125,0.1221729964017868,-0.28832799196243286,0.2296849936246872,13.261631965637207,43.9278678894043,72.27546691894531,14.732336044311523,0.4181547164916992,0.5216217041015625,0.9951686859130859,-0.025939637795090675,-0.09468241035938263,0.02020156756043434,0.9979291558265686,-0.06106520816683769,0.09607045352458954,0.05885741114616394,0.9936326742172241,0.0
709732,18.010000228881836,99.56400299072266,-0.9140580296516418,0.6077759861946106,87.59166717529297,0.11728599667549133,-0.28099700808525085,0.23457199335098267,13.654296875,44.4111442565918,72.26399230957031,15.327669143676758,-0.48153209686279297,0.5838623046875,0.9948288202285767,-0.028329182416200638,-0.0975269228219986,0.022306932136416435,0.9978083372116089,-0.06229409575462341,0.09907803684473038,0.05979636684060097,0.9932811856269836,0.0
709742,18.010000228881836,99.55599975585938,-1.1198400259017944,0.5120639801025391,86.82117462158203,0.10506799817085266,-0.268779993057251,0.2516759932041168,14.0792875289917,45.025390625,71.27332305908203,15.547863960266113,-0.2179584503173828,-0.7704849243164062,0.9944822788238525,-0.03087923303246498,-0.10024966299533844,0.024586979299783707,0.9976848363876343,-0.0634043961763382,0.10197556018829346,0.06058964878320694,0.992939829826355,0.0
709752,18.010000228881836,99.53900146484375,-1.1916249990463257,0.7465599775314331,87.29495239257812,0.10506799817085266,-0.2565630078315735,0.25900599360466003,14.611944198608398,46.11402130126953,72.61534118652344,14.679601669311523,0.7558355331420898,0.47376251220703125,0.9941320419311523,-0.03350410237908363,-0.10284724831581116,0.026944566518068314,0.9975525736808777,-0.06451784819364548,0.10475727170705795,0.061368003487586975,0.9926023483276367,0.0
709762,18.020000457763672,99.5510025024414,-1.1964110136032104,0.8135589957237244,86.81639099121094,0.10262499749660492,-0.2443459928035736,0.268779993057251,14.995409965515137,46.45252227783203,71.24089813232422,15.575496673583984,-0.7794742584228516,-0.47855377197265625,0.9937776327133179,-0.0362253375351429,-0.1053205281496048,0.02940434031188488,0.997411847114563,-0.06560970097780228,0.107424795627594,0.06210450455546379,0.992271363735199,0.0
709772,18.010000228881836,99.53399658203125,-1.1868400573730469,0.7322030067443848,87.4959487915039,0.10506799817085266,-0.2370149940252304,0.2785539925098419,15.488409042358398,47.28371047973633,72.1695785522461,15.326367378234863,0.23883438110351562,0.6795578002929688,0.9934139251708984,-0.039047833532094955,-0.10771629214286804,0.03196326643228531,0.997258722782135,-0.06672986596822739,0.11002680659294128,0.06284733861684799,0.9919393658638,0.0
709782,18.010000228881836,99.53500366210938,-0.9762709736824036,0.7369890213012695,87.74480438232422,0.10262499749660492,-0.22724099457263947,0.28832799196243286,15.928838729858398,47.83368682861328,71.99962615966797,15.745170593261719,-0.3452873229980469,0.2488555908203125,0.9930433034896851,-0.04196620732545853,-0.11001207679510117,0.03462308272719383,0.9970957636833191,-0.06782864034175873,0.11253922432661057,0.06354775279760361,0.9916127920150757,0.0
709792,18.020000457763672,99.53299713134766,-1.4452639818191528,0.6747750043869019,86.89295959472656,0.10018099844455719,-0.21991099417209625,0.2932150065898895,16.345489501953125,48.24241256713867,70.45069122314453,16.442279815673828,-0.6258926391601562,-0.851837158203125,0.9926650524139404,-0.04493163898587227,-0.1122322529554367,0.037333596497774124,0.9969239830970764,-0.06890655308961868,0.11498324573040009,0.06421103328466415,0.9912896156311035,0.0
709802,18.010000228881836,99.52899932861328,-1.8185449838638306,0.31106600165367126,87.62995147705078,0.09040799736976624,-0.18814599514007568,0.30054500699043274,16.756759643554688,48.59086990356445,70.30877685546875,17.3211612701416,-0.7159271240234375,0.7369766235351562,0.9923060536384583,-0.04795975983142853,-0.11413786560297012,0.04013638198375702,0.9967472553253174,-0.06988085806369781,0.11711820214986801,0.06476205587387085,0.9910037517547607,0.0
709812,18.010000228881836,99.51799774169922,-1.6558330059051514,0.7178459763526917,86.82595825195312,0.08552099764347076,-0.17348499596118927,0.30787599086761475,17.223054885864258,49.18368148803711,69.28175354003906,17.54421615600586,-0.2217388153076172,-0.8039779663085938,0.9919476509094238,-0.05105558782815933,-0.11589698493480682,0.04302014783024788,0.9965617060661316,-0.07080576568841934,0.11911365389823914,0.06524967402219772,0.9907338619232178,0.0
709822,18.010000228881836,99.51599884033203,-1.497905969619751,0.7130609750747681,87.54859161376953,0.08063399791717529,-0.15393799543380737,0.3200930058956146,17.663217544555664,49.613616943359375,69.34695434570312,18.201627731323242,-0.5285968780517578,0.7226181030273438,0.991593062877655,-0.054267216473817825,-0.11746148020029068,0.04603737220168114,0.9963645339012146,-0.07167847454547882,0.12092435359954834,0.06566824018955231,0.9904868602752686,0.0
709832,18.010000228881836,99.51699829101562,-1.7659029960632324,0.6604189872741699,88.6492919921875,0.07818999886512756,-0.13927699625492096,0.3249799907207489,18.052709579467773,49.78208923339844,69.15106201171875,19.498214721679688,-1.055643081665039,1.1007080078125,0.9912405014038086,-0.05752449110150337,-0.1188788115978241,0.04911181703209877,0.9961564540863037,-0.07252463698387146,0.1225939467549324,0.06605096906423569,0.990256130695343,0.0
709842,18.010000228881836,99.4990005493164,-1.9668999910354614,0.799202024936676,86.86903381347656,0.07574699819087982,-0.1270589977502823,0.33475399017333984,18.558250427246094,50.493919372558594,67.50376892089844,19.365285873413086,0.040859222412109375,-1.780242919921875,0.9908841848373413,-0.06087563931941986,-0.12017340958118439,0.05229061841964722,0.9959345459938049,-0.07334470748901367,0.1241498664021492,0.06639213114976883,0.9900394678115845,0.0
709852,18.010000228881836,99.49600219726562,-1.9190430641174316,0.7944170236587524,87.11788177490234,0.07085999846458435,-0.11239899694919586,0.344527006149292,19.043216705322266,51.0576286315918,67.47691345214844,19.640968322753906,-0.22385406494140625,0.2488250732421875,0.9905266165733337,-0.06431745737791061,-0.12132278084754944,0.055575720965862274,0.9956997036933899,-0.0741124078631401,0.12556789815425873,0.06666766107082367,0.9898421168327332,0.0
709862,18.010000228881836,99.49500274658203,-1.842473030090332,0.7704880237579346,87.31887817382812,0.07330299913883209,-0.09285099804401398,0.3591879904270172,19.491256713867188,51.41815185546875,66.92361450195312,20.395261764526367,-0.6318740844726562,0.20099639892578125,0.9901699423789978,-0.06790698319673538,-0.12227402627468109,0.059019580483436584,0.9954427480697632,-0.07489710301160812,0.1268029659986496,0.06694424897432327,0.9896659851074219,0.0
709872,18.010000228881836,99.48200225830078,-1.990828037261963,1.1581259965896606,87.41938018798828,0.07085999846458435,-0.06108599901199341,0.3787359893321991,20.00783920288086,52.082881927490234,67.00865173339844,20.410722732543945,-0.009057998657226562,0.10050201416015625,0.9898248314857483,-0.07168637216091156,-0.12290946394205093,0.0626801922917366,0.9951626658439636,-0.07564154267311096,0.12773752212524414,0.06716783344745636,0.989530622959137,0.0
709882,18.010000228881836,99.45999908447266,-2.249253034591675,0.8327019810676575,86.79724884033203,0.07574699819087982,-0.04398199915885925,0.3860659897327423,20.666133880615234,53.39240646362305,67.93154907226562,18.86570930480957,1.2857608795166016,-0.6221237182617188,0.9894807934761047,-0.07554342597723007,-0.12336910516023636,0.06642512232065201,0.9948598146438599,-0.07642592489719391,0.1285085827112198,0.06742711365222931,0.9894131422042847,0.0
709892,18.010000228881836,99.46700286865234,-1.5984050035476685,0.5790629982948303,87.18488311767578,0.07574699819087982,-0.024434000253677368,0.39583998918533325,21.20719337463379,54.089542388916016,68.34294891357422,18.841934204101562,0.03583335876464844,0.38762664794921875,0.9891382455825806,-0.07949613034725189,-0.12363222986459732,0.07028069347143173,0.9945352077484131,-0.07719867676496506,0.129093736410141,0.06767114996910095,0.9893202781677246,0.0
709902,18.010000228881836,99.45600128173828,-1.9429709911346436,0.8805580139160156,86.7733154296875,0.07330299913883209,-0.012217000126838684,0.4056139886379242,21.792909622192383,54.970375061035156,68.4188003540039,18.354516983032227,0.3969306945800781,-0.41156768798828125,0.9887871146202087,-0.08354128152132034,-0.12377338856458664,0.07424137741327286,0.9941896200180054,-0.07793932408094406,0.12956549227237701,0.06787623465061188,0.9892445206642151,0.0
709912,18.010000228881836,99.45700073242188,-2.268394947052002,0.5455629825592041,86.36653900146484,0.07574699819087982,0.0048859999515116215,0.4007270038127899,22.316810607910156,55.51522445678711,67.70117950439453,18.665363311767578,-0.2801780700683594,-0.40677642822265625,0.9884452819824219,-0.08753979206085205,-0.12374036759138107,0.07816531509160995,0.9938294887542725,-0.07869177311658859,0.1298656165599823,0.06811024993658066,0.989189088344574,0.0
709922,18.020000457763672,99.45700073242188,-1.9286149740219116,0.06699900329113007,86.7733154296875,0.06597299873828888,0.021990999579429626,0.4178310036659241,22.790912628173828,55.78965759277344,67.13451385498047,19.6387939453125,-0.8094921112060547,0.406768798828125,0.9880931973457336,-0.09169379621744156,-0.12354397773742676,0.08227124065160751,0.9934470653533936,-0.07933322340250015,0.13000889122486115,0.0682244524359703,0.9891623854637146,0.0
709932,18.010000228881836,99.44300079345703,-2.2013959884643555,0.564706027507782,87.40980529785156,0.058642998337745667,0.058642998337745667,0.43004900217056274,23.33867835998535,56.39670181274414,67.58831024169922,19.821489334106445,-0.12929534912109375,0.6364974975585938,0.9877574443817139,-0.09595780819654465,-0.12298965454101562,0.08652614802122116,0.9930424690246582,-0.07987010478973389,0.12979821860790253,0.06825041025876999,0.9891882538795471,0.0
709942,18.020000457763672,99.44100189208984,-2.100898027420044,0.5838479995727539,86.2516860961914,0.051311999559402466,0.07574699819087982,0.4398219883441925,23.85201072692871,56.8150520324707,65.87503814697266,20.376667022705078,-0.5178413391113281,-1.158111572265625,0.9874144196510315,-0.10030753165483475,-0.12227126955986023,0.09089028090238571,0.9926165342330933,-0.08031660318374634,0.12942495942115784,0.06819245219230652,0.9892411828041077,0.0
709952,18.020000457763672,99.42900085449219,-1.9094719886779785,0.4211359918117523,86.57711029052734,0.04398199915885925,0.09285099804401398,0.44470900297164917,24.41891098022461,57.45212936401367,66.13358306884766,20.443517684936523,-0.04357337951660156,0.32540130615234375,0.9870677590370178,-0.1046946719288826,-0.12138953804969788,0.09531506150960922,0.9921726584434509,-0.08067124336957932,0.12888535857200623,0.06805767863988876,0.9893208742141724,0.0
709962,18.020000457763672,99.41600036621094,-2.6081759929656982,0.5694910287857056,86.45268249511719,0.04153800010681152,0.11239899694919586,0.44226598739624023,25.04444694519043,58.340919494628906,66.55413055419922,19.898550033569336,0.45736122131347656,-0.124420166015625,0.9867272973060608,-0.10905281454324722,-0.12031587958335876,0.09972970187664032,0.9917135834693909,-0.0809786319732666,0.12814997136592865,0.06790469586849213,0.989426851272583,0.0
709972,18.010000228881836,99.41300201416016,-1.990828037261963,0.526419997215271,86.19904327392578,0.03665100038051605,0.13194599747657776,0.44959598779678345,25.63858985900879,59.041770935058594,66.39624786376953,19.802797317504883,0.07099533081054688,-0.25363922119140625,0.9863816499710083,-0.11347544193267822,-0.11905337125062943,0.104231096804142,0.991231381893158,-0.08121278882026672,0.12722523510456085,0.067697674036026,0.9895603656768799,0.0
709982,18.010000228881836,99.41300201416016,-1.952543020248413,0.6125620007514954,86.19425201416016,0.03420799970626831,0.1490509957075119,0.46425700187683105,26.177030563354492,59.44207763671875,65.76685333251953,20.427400588989258,-0.5301494598388672,-0.004791259765625,0.9860177040100098,-0.11803770065307617,-0.11762380599975586,0.10888972878456116,0.9907152652740479,-0.08139865100383759,0.12613993883132935,0.06745242327451706,0.9897159934043884,0.0
709992,18.010000228881836,99.40899658203125,-1.842473030090332,0.5742769837379456,86.7446060180664,0.026877999305725098,0.18570199608802795,0.4935790002346039,26.69733238220215,59.730674743652344,65.41634368896484,21.328262329101562,-0.7421169281005859,0.55035400390625,0.985637366771698,-0.12287821620702744,-0.11584068834781647,0.11386632919311523,0.9901502728462219,-0.08146411180496216,0.12470997869968414,0.06710366904735565,0.9899208545684814,0.0
710002,18.010000228881836,99.3949966430664,-1.7228319644927979,0.8805580139160156,85.529052734375,0.03420799970626831,0.20036299526691437,0.5009089708328247,27.286617279052734,60.330989837646484,64.13107299804688,21.397991180419922,-0.10827445983886719,-1.2155532836914062,0.9852375388145447,-0.1277969926595688,-0.11390329152345657,0.11892473697662354,0.9895462393760681,-0.08157599717378616,0.12313787639141083,0.06682577729225159,0.990136444568634,0.0
710012,18.020000457763672,99.39299774169922,-1.875972032546997,0.9092720150947571,86.2134017944336,0.026877999305725098,0.21502399444580078,0.5057960152626038,27.83699607849121,60.70465087890625,64.14851379394531,22.064876556396484,-0.5381832122802734,0.6843338012695312,0.9848196506500244,-0.1327529400587082,-0.11183014512062073,0.12404052168130875,0.9889170527458191,-0.08158759027719498,0.12142186611890793,0.06647753715515137,0.9903717637062073,0.0
710022,18.020000457763672,99.37000274658203,-1.9333999156951904,0.6604189872741699,85.88318634033203,0.02932099997997284,0.2296849936246872,0.513126015663147,28.531585693359375,61.74822998046875,64.78694915771484,21.09623908996582,0.8085174560546875,-0.33020782470703125,0.9843786358833313,-0.1377810388803482,-0.10960890352725983,0.12923751771450043,0.988250732421875,-0.08159390836954117,0.11956331133842468,0.06615366786718369,0.9906194806098938,0.0
710032,18.020000457763672,99.3740005493164,-1.4309070110321045,0.8709869980812073,84.92127227783203,0.026877999305725098,0.2443459928035736,0.5277870297431946,29.128612518310547,62.28312301635742,63.603111267089844,21.318172454833984,-0.22716712951660156,-0.9619140625,0.9839020371437073,-0.14294777810573578,-0.10724634677171707,0.13458776473999023,0.9875404238700867,-0.08154486864805222,0.11756689101457596,0.0657980665564537,0.9908820986747742,0.0
710042,18.020000457763672,99.37000274658203,-1.316051959991455,1.1198400259017944,85.16055297851562,0.026877999305725098,0.25900599360466003,0.5448909997940063,29.70258903503418,62.67106246948242,63.243038177490234,21.91751480102539,-0.4988555908203125,0.2392730712890625,0.9833829402923584,-0.14827950298786163,-0.10473936796188354,0.14011481404304504,0.986778199672699,-0.08146265149116516,0.11543390154838562,0.06543339043855667,0.9911569952964783,0.0
710052,18.020000457763672,99.36699676513672,-1.0911270380020142,0.8709869980812073,86.15118408203125,0.026877999305725098,0.26633700728416443,0.559552013874054,30.246007919311523,62.89129638671875,63.209632873535156,22.94154167175293,-0.8288307189941406,0.990631103515625,0.9828137159347534,-0.15375176072120667,-0.10216023772954941,0.14578795433044434,0.985964834690094,-0.08135568350553513,0.11323512345552444,0.0650637075304985,0.9914349317550659,0.0
710062,18.020000457763672,99.36399841308594,-1.2442669868469238,1.1581259965896606,85.25627136230469,0.024434000253677368,0.28832799196243286,0.5766559839248657,30.760591506958008,62.963218688964844,61.02981948852539,24.22646141052246,-1.1263713836669922,-0.8949050903320312,0.9822021722793579,-0.15938562154769897,-0.09936892241239548,0.15164250135421753,0.9850961565971375,-0.08117681741714478,0.11082649976015091,0.06466346234083176,0.9917333126068115,0.0
710072,18.020000457763672,99.34700012207031,-1.1102689504623413,1.3543369770050049,84.42835235595703,0.03420799970626831,0.30054500699043274,0.5839869976043701,31.368587493896484,63.45580291748047,59.962364196777344,24.46599769592285,-0.23669052124023438,-0.8279266357421875,0.9815503358840942,-0.16509674489498138,-0.09644219279289246,0.15757359564304352,0.9841746091842651,-0.0810585767030716,0.10829860717058182,0.06436628848314285,0.9920318722724915,0.0
710082,18.020000457763672,99.3479995727539,-0.5886340141296387,1.0289130210876465,84.40921020507812,0.03420799970626831,0.305431991815567,0.586430013179779,31.908918380737305,63.59186553955078,58.84554672241211,25.563663482666016,-0.9321098327636719,-0.0191497802734375,0.9808573722839355,-0.17082694172859192,-0.09346754103899002,0.16352687776088715,0.9832147359848022,-0.08091478794813156,0.10572123527526855,0.06408136337995529,0.9923283457756042,0.0
710092,18.010000228881836,99.33100128173828,-0.6317049860954285,0.803987979888916,83.85407257080078,0.04153800010681152,0.3103190064430237,0.5913169980049133,32.54059600830078,64.14607238769531,58.23568344116211,25.61839485168457,-0.06886672973632812,-0.5551376342773438,0.9801179766654968,-0.17660664021968842,-0.09043242037296295,0.16952604055404663,0.9822062253952026,-0.08081678301095963,0.10309620201587677,0.06387929618358612,0.9926175475120544,0.0
710102,18.010000228881836,99.31900024414062,-0.6317049860954285,1.3447660207748413,83.76314544677734,0.04153800010681152,0.3176490068435669,0.5986469984054565,33.214759826660156,64.87047576904297,58.48570251464844,25.277441024780273,0.285614013671875,-0.09093475341796875,0.9793285727500916,-0.18245238065719604,-0.08732539415359497,0.1755966991186142,0.9811496734619141,-0.08068746328353882,0.10040103644132614,0.06368546187877655,0.9929062128067017,0.0
710112,18.010000228881836,99.31300354003906,-0.325423002243042,0.526419997215271,84.13642883300781,0.03176400065422058,0.32253599166870117,0.6035339832305908,33.87683868408203,65.50514221191406,58.959259033203125,25.177165985107422,0.10016250610351562,0.37328338623046875,0.9784899353981018,-0.1883314549922943,-0.08418874442577362,0.18171225488185883,0.9800562858581543,-0.08043425530195236,0.09765814989805222,0.06340598315000534,0.9931976199150085,0.0
710122,18.010000228881836,99.31099700927734,-0.062212999910116196,1.2490530014038086,82.51888275146484,0.04398199915885925,0.32253599166870117,0.6035339832305908,34.492801666259766,65.8943099975586,56.94377899169922,25.575119018554688,-0.4030036926269531,-1.6175460815429688,0.9776062965393066,-0.19421449303627014,-0.08102958649396896,0.18782050907611847,0.9789166450500488,-0.08028117567300797,0.09491312503814697,0.06326434016227722,0.9934728145599365,0.0
710132,18.010000228881836,99.3030014038086,0.5359920263290405,0.5838479995727539,83.629150390625,0.04398199915885925,0.3200930058956146,0.6157519817352295,35.11686325073242,66.28387451171875,57.57487487792969,26.054264068603516,-0.3616828918457031,1.1102523803710938,0.9766512513160706,-0.2002100646495819,-0.07789459824562073,0.19403885304927826,0.9777169227600098,-0.08011286705732346,0.09219841659069061,0.06312771141529083,0.9937371611595154,0.0
710142,18.020000457763672,99.2979965209961,-0.6317049860954285,0.5742769837379456,84.8494873046875,0.04398199915885925,0.32986700534820557,0.6206380128860474,35.722450256347656,66.57293701171875,58.057682037353516,26.791793823242188,-0.5764656066894531,1.2203521728515625,0.9756470322608948,-0.20624597370624542,-0.0746646299958229,0.20030468702316284,0.9764694571495056,-0.07990525662899017,0.08938802033662796,0.06300362199544907,0.9940017461776733,0.0
710152,18.010000228881836,99.29000091552734,-1.3878369331359863,1.2825520038604736,82.9304428100586,0.04398199915885925,0.344527006149292,0.6401860117912292,36.336456298828125,66.89305877685547,55.61281204223633,27.317655563354492,-0.523712158203125,-1.9190292358398438,0.9745643734931946,-0.21246463060379028,-0.07129238545894623,0.2067643105983734,0.9751432538032532,-0.07964678108692169,0.08644256740808487,0.06288015097379684,0.9942700266838074,0.0
710162,18.010000228881836,99.27899932861328,-0.2249249964952469,1.0767699480056763,83.38507843017578,0.03420799970626831,0.36163198947906494,0.6524029970169067,36.98398208618164,67.33387756347656,55.77250289916992,27.612573623657227,-0.23186111450195312,0.45461273193359375,0.9734158515930176,-0.21878689527511597,-0.06777563691139221,0.21334683895111084,0.9737579226493835,-0.07923458516597748,0.08333270251750946,0.06266845762729645,0.9945488572120667,0.0
710172,18.020000457763672,99.26399993896484,-0.9954140186309814,0.8087739944458008,82.9448013305664,0.046424999833106995,0.38850998878479004,0.6524029970169067,37.69723892211914,68.06861877441406,55.772705078125,27.17209815979004,0.3559417724609375,-0.440277099609375,0.9722312092781067,-0.22510841488838196,-0.06397226452827454,0.21994009613990784,0.9723203778266907,-0.07885927706956863,0.07995358109474182,0.06259935349225998,0.9948306083679199,0.0
710182,18.010000228881836,99.26100158691406,0.4642069935798645,0.9236289858818054,82.14559936523438,0.03665100038051605,0.40805700421333313,0.6524029970169067,38.3685302734375,68.56825256347656,54.8739128112793,27.271699905395508,-0.11679840087890625,-0.7992019653320312,0.971002995967865,-0.2314142882823944,-0.06000296026468277,0.2265375554561615,0.9708481431007385,-0.07831960916519165,0.07637819647789001,0.062455616891384125,0.9951205849647522,0.0
710192,18.020000457763672,99.23999786376953,0.37806499004364014,1.239482045173645,81.92546081542969,0.046424999833106995,0.41538798809051514,0.6499599814414978,39.15526580810547,69.5857162475586,55.775062561035156,26.150400161743164,0.9424934387207031,-0.22015380859375,0.9697280526161194,-0.23769256472587585,-0.05594231188297272,0.23310533165931702,0.9693315029144287,-0.07783103734254837,0.07272665947675705,0.062434446066617966,0.9953954815864563,0.0
710202,18.010000228881836,99.23400115966797,0.6556329727172852,1.1629109382629395,81.30332946777344,0.04398199915885925,0.4251619875431061,0.6450729966163635,39.92082214355469,70.46248626708984,55.93860626220703,25.36473274230957,0.6414794921875,-0.62213134765625,0.9684131741523743,-0.24391193687915802,-0.051795218139886856,0.2396213710308075,0.9677864909172058,-0.07726835459470749,0.06897354125976562,0.06241638585925102,0.9956637620925903,0.0
710212,18.010000228881836,99.23300170898438,1.0336990356445312,0.9714850187301636,81.20282745361328,0.04398199915885925,0.427605003118515,0.6499599814414978,40.62299728393555,70.99685668945312,55.783599853515625,25.419231414794922,-0.05030059814453125,-0.1005096435546875,0.9670302271842957,-0.25016817450523376,-0.04762738570570946,0.24617408215999603,0.9661880135536194,-0.07667180150747299,0.06519800424575806,0.06241923198103905,0.9959179759025574,0.0
710222,18.020000457763672,99.21600341796875,1.2729809284210205,1.6031910181045532,81.41818237304688,0.053755998611450195,0.43004900217056274,0.6499599814414978,41.40325164794922,71.87651062011719,56.75135040283203,24.666824340820312,0.6470947265625,0.2153472900390625,0.9655904173851013,-0.2564179003238678,-0.043414369225502014,0.2527157962322235,0.9645401239395142,-0.0761353150010109,0.06139750778675079,0.06254395097494125,0.9961516857147217,0.0
710232,18.010000228881836,99.21399688720703,1.4548360109329224,1.5314059257507324,81.48039245605469,0.051311999559402466,0.43004900217056274,0.6450729966163635,42.127281188964844,72.45559692382812,56.83803939819336,24.642353057861328,0.02327728271484375,0.06221771240234375,0.9641055464744568,-0.2626078128814697,-0.03921053931117058,0.2591973543167114,0.9628649353981018,-0.07554692775011063,0.05759381502866745,0.06267183274030685,0.9963708519935608,0.0
710242,18.010000228881836,99.1989974975586,2.0482559204101562,1.3351950645446777,81.705322265625,0.05619899928569794,0.427605003118515,0.6401860117912292,42.91029739379883,73.28915405273438,57.68067932128906,24.024639129638672,0.5331993103027344,0.2249298095703125,0.9625756740570068,-0.2687406837940216,-0.03502048924565315,0.2656168043613434,0.961158037185669,-0.0749838650226593,0.053811587393283844,0.06287550926208496,0.9965695142745972,0.0
710252,18.020000457763672,99.19499969482422,2.636889934539795,1.6271190643310547,81.36553955078125,0.06597299873828888,0.4129439890384674,0.6279690265655518,43.65361022949219,73.90189361572266,57.44223403930664,23.92330551147461,0.0722503662109375,-0.33978271484375,0.9610183238983154,-0.27474719285964966,-0.0309479720890522,0.2718949615955353,0.9594366550445557,-0.07452647387981415,0.05016870051622391,0.06320660561323166,0.9967385530471802,0.0
710262,18.020000457763672,99.18099975585938,3.144167900085449,1.6366900205612183,81.2793960571289,0.06841599941253662,0.4007270038127899,0.6230819821357727,44.44554901123047,74.71495056152344,57.925724029541016,23.35367202758789,0.47983551025390625,-0.08614349365234375,0.9594175815582275,-0.28069499135017395,-0.026988448575139046,0.27810463309288025,0.9576882123947144,-0.07409968227148056,0.04664607346057892,0.06358681619167328,0.9968854188919067,0.0
710272,18.020000457763672,99.18199920654297,3.775874137878418,1.6558330059051514,81.4516830444336,0.07818999886512756,0.38362300395965576,0.6133080124855042,45.15357971191406,75.09387969970703,57.615055084228516,23.836624145507812,-0.40280914306640625,0.1722869873046875,0.9577884674072266,-0.2865389287471771,-0.02316748909652233,0.28419584035873413,0.9559223055839539,-0.07378914952278137,0.04328992962837219,0.06409018486738205,0.9970045685768127,0.0
710282,18.020000457763672,99.15799713134766,3.699302911758423,1.3974080085754395,81.53303527832031,0.08552099764347076,0.3665190041065216,0.6133080124855042,45.99802017211914,76.10209655761719,58.71648406982422,22.816553115844727,0.8687858581542969,0.08135986328125,0.9561061859130859,-0.2923714518547058,-0.01949065551161766,0.2902625501155853,0.9541143178939819,-0.0735735222697258,0.04010726138949394,0.0646866038441658,0.9970991015434265,0.0
710292,18.020000457763672,99.15499877929688,4.240080833435059,0.894914984703064,81.40860748291016,0.08063399791717529,0.34941399097442627,0.6084210276603699,46.78933334350586,76.81968688964844,58.907073974609375,22.50153923034668,0.2622528076171875,-0.12442779541015625,0.9543871879577637,-0.29814302921295166,-0.015992799773812294,0.2962583005428314,0.9522877931594849,-0.07333831489086151,0.03709520772099495,0.0652550682425499,0.9971786737442017,0.0
710302,18.020000457763672,99.14099884033203,4.800002098083496,1.1868400573730469,81.25068664550781,0.08063399791717529,0.32253599166870117,0.5986469984054565,47.62522506713867,77.71748352050781,59.488304138183594,21.76238441467285,0.6207695007324219,-0.157928466796875,0.9526478052139282,-0.3038082718849182,-0.012752540409564972,0.3021296262741089,0.9504549503326416,-0.07316181063652039,0.0343480259180069,0.06584442406892776,0.9972383379936218,0.0
710312,18.010000228881836,99.12699890136719,5.364707946777344,1.1964110136032104,81.5138931274414,0.07818999886512756,0.2638930082321167,0.635299026966095,48.502681732177734,78.77631378173828,60.83845901489258,20.675432205200195,0.9328804016113281,0.26320648193359375,0.9507454037666321,-0.3098089098930359,-0.010078923776745796,0.308294415473938,0.9484764337539673,-0.07312063872814178,0.03221318498253822,0.06641171127557755,0.9972719550132751,0.0
710322,18.020000457763672,99.11399841308594,6.001198768615723,1.5122630596160889,81.25068664550781,0.08552099764347076,0.21991099417209625,0.635299026966095,49.41020202636719,79.94120025634766,61.90662384033203,19.34406280517578,1.1189918518066406,-0.26320648193359375,0.9487950205802917,-0.3157961368560791,-0.007800365798175335,0.3144145607948303,0.9464538097381592,-0.0732685849070549,0.03052075393497944,0.06706418842077255,0.9972814917564392,0.0
710332,18.020000457763672,99.0989990234375,5.747559070587158,1.5792620182037354,80.85347747802734,0.08552099764347076,0.18570199608802795,0.6255249977111816,50.36286163330078,81.27618408203125,63.224971771240234,17.628511428833008,1.439544677734375,-0.39720916748046875,0.9468315839767456,-0.3216765820980072,-0.005845133680850267,0.3204048275947571,0.9444239139556885,-0.0735105574131012,0.029167041182518005,0.0677291676402092,0.997277021408081,0.0
710342,18.010000228881836,99.08899688720703,5.532205104827881,1.6414759159088135,80.65248107910156,0.08552099764347076,0.14660699665546417,0.6255249977111816,51.31437301635742,82.55487823486328,64.56553649902344,16.086944580078125,1.2998504638671875,-0.2010040283203125,0.9448266625404358,-0.3275432288646698,-0.004258195869624615,0.32635414600372314,0.9423568248748779,-0.07386661320924759,0.02820737287402153,0.06840131431818008,0.9972587823867798,0.0
710352,18.020000457763672,99.08799743652344,5.6374897956848145,1.4596209526062012,80.69076538085938,0.09040799736976624,0.10751199722290039,0.6230819821357727,52.1867790222168,83.40853881835938,65.0949478149414,15.595819473266602,0.41825103759765625,0.0382843017578125,0.942790150642395,-0.3333732485771179,-0.003021904267370701,0.33223918080329895,0.9402570128440857,-0.07438742369413376,0.027640273794531822,0.06912758946418762,0.9972245693206787,0.0
710362,18.010000228881836,99.07099914550781,5.225924015045166,1.6366900205612183,80.44669342041016,0.09773799777030945,0.07330299913883209,0.6206380128860474,53.12238693237305,84.52803039550781,65.97289276123047,14.473808288574219,0.9421310424804688,-0.24407196044921875,0.9407239556312561,-0.3391667902469635,-0.0020799320191144943,0.33806324005126953,0.9381232261657715,-0.07508400082588196,0.027417367324233055,0.06993003189563751,0.9971747398376465,0.0
710372,18.020000457763672,99.06500244140625,5.259424209594727,0.875773012638092,80.70511627197266,0.09773799777030945,0.012217000126838684,0.6181949973106384,54.02219009399414,85.4319839477539,66.79776763916016,13.907341957092285,0.4910697937011719,0.25841522216796875,0.9386290311813354,-0.3449239432811737,-0.0017077007796615362,0.34380555152893066,0.9359614253044128,-0.07598298043012619,0.027806833386421204,0.07073257863521576,0.9971073269844055,0.0
710382,18.020000457763672,99.06400299072266,5.048854827880859,0.9284150004386902,80.10691833496094,0.09040799736976624,-0.021990999579429626,0.6133080124855042,54.84490203857422,85.9333267211914,65.83317565917969,14.273747444152832,-0.335052490234375,-0.5981903076171875,0.9365155100822449,-0.35062211751937866,-0.0016761979786679149,0.3494627773761749,0.9337863922119141,-0.07692965865135193,0.02853858657181263,0.07145991176366806,0.9970347881317139,0.0
710392,18.010000228881836,99.05400085449219,5.154139041900635,-0.11485499888658524,79.62356567382812,0.07330299913883209,-0.058642998337745667,0.6181949973106384,55.67243957519531,86.42436981201172,64.97639465332031,14.647176742553711,-0.33637237548828125,-0.48336029052734375,0.9343491792678833,-0.3563528060913086,-0.002042219042778015,0.3551236093044281,0.9315721392631531,-0.07784565538167953,0.02964312769472599,0.07200964540243149,0.9969630241394043,0.0
710402,18.020000457763672,99.04100036621094,5.402993202209473,0.5312060117721558,79.61878204345703,0.08063399791717529,-0.0879639983177185,0.6230819821357727,56.530094146728516,87.02722930908203,64.86067199707031,14.75810718536377,-0.0943145751953125,-0.004791259765625,0.9321291446685791,-0.3621161878108978,-0.0026498809456825256,0.36079251766204834,0.9292992353439331,-0.07893695682287216,0.031047020107507706,0.07262324541807175,0.9968757629394531,0.0
710412,18.020000457763672,99.04000091552734,5.067997932434082,0.26799601316452026,79.46085357666016,0.07085999846458435,-0.11728599667549133,0.6255249977111816,57.31229019165039,87.24044036865234,63.67844009399414,15.782413482666016,-0.8754730224609375,-0.157928466796875,0.929862916469574,-0.36788874864578247,-0.003559415228664875,0.3664456009864807,0.9269893765449524,-0.08004776388406754,0.03274835646152496,0.07312896847724915,0.9967843890190125,0.0
710422,18.010000228881836,99.02400207519531,5.1349968910217285,-0.19142499566078186,79.58049774169922,0.05619899928569794,-0.15393799543380737,0.6181949973106384,58.152687072753906,87.70941925048828,63.39470672607422,16.185789108276367,-0.3374176025390625,0.1196441650390625,0.9275854825973511,-0.37357935309410095,-0.004856814630329609,0.3719855844974518,0.9246829748153687,-0.08116353303194046,0.03481217846274376,0.0734793171286583,0.9966886639595032,0.0
710432,18.020000457763672,99.0250015258789,5.029713153839111,-0.19621099531650543,79.44171142578125,0.04398199915885925,-0.18081599473953247,0.6157519817352295,58.900997161865234,87.7142333984375,61.77156448364258,17.67014503479004,-1.2650375366210938,-0.13878631591796875,0.9252786040306091,-0.37923336029052734,-0.006442315876483917,0.37746506929397583,0.9223613142967224,-0.08227483183145523,0.037143658846616745,0.07369524985551834,0.9965885281562805,0.0
710442,18.020000457763672,99.02200317382812,4.5128631591796875,-0.5216349959373474,79.47521209716797,0.014659999869763851,-0.23945899307727814,0.6206380128860474,59.597084045410156,87.4539566040039,59.722755432128906,19.75245475769043,-1.7654228210449219,0.03350067138671875,0.9229103922843933,-0.38491690158843994,-0.00867487769573927,0.3829246461391449,0.9200114607810974,-0.08334829658269882,0.04006331413984299,0.07360102981328964,0.9964823722839355,0.0
710452,18.020000457763672,99.00900268554688,4.048655033111572,-0.7322030067443848,79.30292510986328,-0.007329999934881926,-0.2565630078315735,0.6133080124855042,60.330204010009766,87.36268615722656,57.927032470703125,21.37589454650879,-1.3843994140625,-0.1722869873046875,0.9205284118652344,-0.390516459941864,-0.011143665760755539,0.38828566670417786,0.9176750183105469,-0.08429870754480362,0.04314645379781723,0.07327229529619217,0.9963778257369995,0.0
710462,18.020000457763672,99.00299835205078,4.086940765380859,-0.5838479995727539,79.0827865600586,-0.014659999869763851,-0.28099700808525085,0.6157519817352295,61.03767013549805,87.13592529296875,55.80720138549805,23.275590896606445,-1.6207275390625,-0.2201385498046875,0.9180929064750671,-0.3961227238178253,-0.013859963044524193,0.3936314582824707,0.9153027534484863,-0.08529181033372879,0.04647224023938179,0.07284996658563614,0.9962592124938965,0.0
710472,18.020000457763672,98.99199676513672,3.943371057510376,-0.6891319751739502,79.5757064819336,-0.03420799970626831,-0.30298900604248047,0.6255249977111816,61.76404571533203,86.98944091796875,54.6069221496582,24.968778610229492,-1.4167022705078125,0.49291229248046875,0.9155723452568054,-0.4018000364303589,-0.016849560663104057,0.3990303575992584,0.9128758311271667,-0.08620927482843399,0.050020601600408554,0.0722072422504425,0.9961341619491577,0.0
710482,18.020000457763672,98.98400115966797,2.6799609661102295,-0.7800599932670593,79.03492736816406,-0.058642998337745667,-0.3200930058956146,0.6181949973106384,62.48224639892578,86.79922485351562,52.34701919555664,26.687915802001953,-1.4804840087890625,-0.540771484375,0.913033664226532,-0.4073890447616577,-0.020088475197553635,0.40432995557785034,0.9104666709899902,-0.08699016273021698,0.05372888222336769,0.07130246609449387,0.996006190776825,0.0
710492,18.020000457763672,98.96399688720703,2.7900309562683105,-0.33499500155448914,79.02057647705078,-0.07085999846458435,-0.32986700534820557,0.6059780120849609,63.296142578125,87.05229187011719,51.692527770996094,27.328048706054688,-0.5437126159667969,-0.0143585205078125,0.910498321056366,-0.4128465950489044,-0.023461543023586273,0.4094927906990051,0.9080862998962402,-0.08771830052137375,0.05751946195960045,0.0702599361538887,0.9958685636520386,0.0
710502,18.020000457763672,98.95099639892578,1.6797609329223633,-0.48335000872612,78.76693725585938,-0.10751199722290039,-0.344527006149292,0.6133080124855042,64.1394271850586,87.42703247070312,51.11402130126953,27.652917861938477,-0.285888671875,-0.25363922119140625,0.9078840017318726,-0.41834351420402527,-0.027115415781736374,0.41469278931617737,0.9056771993637085,-0.08819369226694107,0.06145322322845459,0.06882496178150177,0.9957337379455566,0.0
710512,18.010000228881836,98.94000244140625,1.1772680282592773,0.08614099770784378,78.69993591308594,-0.11728599667549133,-0.3396410048007965,0.635299026966095,64.99291229248047,87.82689666748047,50.78651428222656,27.91342544555664,-0.2237396240234375,-0.0670013427734375,0.9051316976547241,-0.42401671409606934,-0.030762722715735435,0.4200794994831085,0.9031533002853394,-0.0885816216468811,0.06534368544816971,0.06725510954856873,0.995593249797821,0.0
710522,18.020000457763672,98.94300079345703,1.071984052658081,-0.3876369893550873,79.03492736816406,-0.1343899965286255,-0.3396410048007965,0.657289981842041,65.7350845336914,87.67376708984375,49.53908157348633,29.495847702026367,-1.3291015625,0.334991455078125,0.9022364020347595,-0.4298609495162964,-0.034480009227991104,0.42564716935157776,0.900517463684082,-0.08883737027645111,0.06923770904541016,0.06547584384679794,0.995448648929596,0.0
710532,18.020000457763672,98.93599700927734,0.9523429870605469,-0.5934200286865234,78.82914733886719,-0.15882399678230286,-0.3249799907207489,0.6597340106964111,66.4587631225586,87.42756652832031,47.58562469482422,31.243526458740234,-1.4911651611328125,-0.205780029296875,0.8992849588394165,-0.43569430708885193,-0.03816867619752884,0.43123215436935425,0.8978567719459534,-0.08883354812860489,0.07297442108392715,0.06342697143554688,0.9953144192695618,0.0
710542,18.020000457763672,98.90899658203125,0.7465599775314331,0.8422729969024658,78.58507537841797,-0.16371099650859833,-0.305431991815567,0.6597340106964111,67.33741760253906,87.91294860839844,47.37576675415039,31.20931625366211,0.0191650390625,-0.24407196044921875,0.8962912559509277,-0.4415004849433899,-0.04170263931155205,0.4368171989917755,0.8951637744903564,-0.08872393518686295,0.07650250196456909,0.061305899173021317,0.9951823353767395,0.0
710552,18.020000457763672,98.9000015258789,1.7371890544891357,1.976470947265625,78.29315185546875,-0.17837199568748474,-0.305431991815567,0.6524029970169067,68.2063217163086,88.32667541503906,46.95547866821289,31.337677001953125,-0.12070465087890625,-0.29193115234375,0.8932813405990601,-0.4472092390060425,-0.045301780104637146,0.4423196315765381,0.8924794793128967,-0.08850506693124771,0.08001133799552917,0.05902189016342163,0.9950445294380188,0.0
710562,18.020000457763672,98.88500213623047,1.3878369331359863,1.9190430641174316,78.33622741699219,-0.17348499596118927,-0.2956579923629761,0.6866120100021362,69.11760711669922,88.91858673095703,47.28648376464844,31.049747467041016,0.24604034423828125,0.0430755615234375,0.8900730013847351,-0.4531988799571991,-0.04879247024655342,0.4481181800365448,0.8896016478538513,-0.0883089154958725,0.08342749625444412,0.056736402213573456,0.9948968887329102,0.0
710572,18.020000457763672,98.8740005493164,0.27278101444244385,2.24446702003479,78.47979736328125,-0.15638099610805511,-0.28588399291038513,0.7061600089073181,70.03397369384766,89.5097885131836,47.70365524291992,30.776142120361328,0.237945556640625,0.1435699462890625,0.8867287039756775,-0.4593425989151001,-0.052118878811597824,0.454079270362854,0.886580228805542,-0.08824355900287628,0.08674171566963196,0.05458179861307144,0.9947339296340942,0.0
710582,18.020000457763672,98.85900115966797,-0.08135499805212021,2.3832509517669678,78.22136688232422,-0.15882399678230286,-0.27366700768470764,0.7232639789581299,70.98937225341797,90.26295471191406,48.11193084716797,30.109437942504883,0.55523681640625,-0.25843048095703125,0.8832588195800781,-0.4656074047088623,-0.055348172783851624,0.46018120646476746,0.8834404349327087,-0.08812329173088074,0.0899277776479721,0.052365273237228394,0.9945700764656067,0.0
710592,18.020000457763672,98.8489990234375,-0.3445659875869751,1.842473030090332,78.1208724975586,-0.14660699665546417,-0.25900599360466003,0.7428110241889954,71.93807220458984,90.95227813720703,48.509639739990234,29.611236572265625,0.41864776611328125,-0.100494384765625,0.8796513080596924,-0.47202107310295105,-0.05839107558131218,0.4664456248283386,0.8801547288894653,-0.08806535601615906,0.09296198934316635,0.050230320543050766,0.9944011569023132,0.0
710602,18.020000457763672,98.84500122070312,-1.220339059829712,2.4406790733337402,77.929443359375,-0.14660699665546417,-0.2443459928035736,0.7574719786643982,72.82849884033203,91.33475494384766,48.08412551879883,29.845317840576172,-0.2063446044921875,-0.191436767578125,0.8759273290634155,-0.47853198647499084,-0.06130499765276909,0.472827285528183,0.8767533898353577,-0.0879603698849678,0.09584131836891174,0.04805997759103775,0.9942350387573242,0.0
710612,18.020000457763672,98.84300231933594,-1.4787640571594238,3.000598907470703,77.6758041381836,-0.1343899965286255,-0.21991099417209625,0.7770199775695801,73.64669036865234,91.35047149658203,46.74028015136719,30.935527801513672,-0.9352569580078125,-0.25363922119140625,0.8720678687095642,-0.4851888418197632,-0.06394658982753754,0.47937560081481934,0.8731996417045593,-0.0878673642873764,0.09847050160169601,0.04597163945436478,0.9940768480300903,0.0
710622,18.020000457763672,98.82099914550781,-1.5936189889907837,2.890528917312622,77.89115905761719,-0.13194599747657776,-0.20036299526691437,0.7867940068244934,74.56925964355469,91.8499526977539,47.02140808105469,30.869747161865234,0.06451416015625,0.2153472900390625,0.8681160807609558,-0.491898775100708,-0.06640625,0.4859987497329712,0.8695455193519592,-0.08772116899490356,0.1008932888507843,0.043878570199012756,0.9939284920692444,0.0
710632,18.020000457763672,98.822998046875,-2.612962007522583,3.187238931655884,77.14938354492188,-0.09773799777030945,-0.13683299720287323,0.8185589909553528,75.38286590576172,91.808837890625,45.103172302246094,32.04621505737305,-1.028167724609375,-0.7417755126953125,0.8639918565750122,-0.4988725185394287,-0.06814686954021454,0.4929240047931671,0.865652859210968,-0.08757992088794708,0.10268284380435944,0.042076874524354935,0.9938231110572815,0.0
710642,18.020000457763672,98.79399871826172,-2.536391019821167,3.9003000259399414,77.56573486328125,-0.07085999846458435,-0.10751199722290039,0.8405500054359436,76.36113739013672,92.53604125976562,46.154170989990234,31.411561965942383,0.5553054809570312,0.416351318359375,0.8597176671028137,-0.5060186386108398,-0.06950058043003082,0.5000325441360474,0.8615703582763672,-0.08753929287195206,0.10417624562978745,0.04050629585981369,0.9937329888343811,0.0
710652,18.020000457763672,98.77899932861328,-2.770887851715088,3.8620150089263916,77.2211685180664,-0.058642998337745667,-0.07330299913883209,0.8552110195159912,77.37323760986328,93.400146484375,46.78004455566406,30.441125869750977,0.8094635009765625,-0.34456634521484375,0.855331301689148,-0.5132620334625244,-0.07049878686666489,0.5072624087333679,0.8573434948921204,-0.08744262158870697,0.10532274097204208,0.03903079777956009,0.993671178817749,0.0
710662,18.010000228881836,98.77400207519531,-2.7038888931274414,3.4791641235351562,77.02495574951172,-0.03909499943256378,-0.03665100038051605,0.8625410199165344,78.33063507080078,93.9683609008789,46.83113098144531,30.193828582763672,0.20189666748046875,-0.1962127685546875,0.8508706092834473,-0.5205437541007996,-0.07108394801616669,0.5145506858825684,0.8530003428459167,-0.0873342901468277,0.10609602928161621,0.037733662873506546,0.9936389923095703,0.0
710672,18.020000457763672,98.7490005493164,-2.550747871398926,3.287738084793091,77.00102996826172,-0.024434000253677368,-0.00977300014346838,0.8796449899673462,79.40875244140625,95.0855484008789,48.34608840942383,28.654939651489258,1.3047332763671875,-0.02393341064453125,0.8462763428688049,-0.5279420614242554,-0.07136502861976624,0.5219700932502747,0.8484926223754883,-0.08721642196178436,0.10659801214933395,0.03655856475234032,0.9936291575431824,0.0
710682,18.020000457763672,98.75599670410156,-2.392822027206421,3.651447057723999,76.26882934570312,-0.00977300014346838,0.024434000253677368,0.8894190192222595,80.32415008544922,95.38841247558594,47.22077941894531,29.048053741455078,-0.363128662109375,-0.7322006225585938,0.841589629650116,-0.5353927612304688,-0.07128048688173294,0.5294620394706726,0.8438555598258972,-0.08704524487257004,0.10675392299890518,0.03551584109663963,0.9936502575874329,0.0
710692,18.020000457763672,98.72899627685547,-2.1056830883026123,3.1776680946350098,76.54161071777344,0.017103999853134155,0.07818999886512756,0.9138540029525757,81.37947845458984,96.33305358886719,48.600181579589844,27.941429138183594,0.9499588012695312,0.2727813720703125,0.8367425799369812,-0.543025553226471,-0.0706014558672905,0.5371643304824829,0.8389977216720581,-0.08681276440620422,0.10637609660625458,0.03471512719988823,0.9937191009521484,0.0
710702,18.020000457763672,98.72200012207031,-1.5266199111938477,3.76151704788208,76.67560577392578,0.03665100038051605,0.10262499749660492,0.9382879734039307,82.39360046386719,97.04960632324219,49.2741813659668,27.40142250061035,0.463592529296875,0.13399505615234375,0.8317083120346069,-0.5508308410644531,-0.06961383670568466,0.5450469851493835,0.8339199423789978,-0.0866052657365799,0.10575730353593826,0.03408728539943695,0.9938068389892578,0.0
710712,18.010000228881836,98.70800018310547,-0.693917989730835,3.249453067779541,76.50811004638672,0.051311999559402466,0.13194599747657776,0.9407320022583008,83.42906951904297,97.84039306640625,49.820980072021484,26.6871280670166,0.5992889404296875,-0.1674957275390625,0.8266069889068604,-0.5586188435554504,-0.06830372661352158,0.5529271960258484,0.8287426829338074,-0.08634936809539795,0.10484267771244049,0.03360976651310921,0.9939200282096863,0.0
710722,18.020000457763672,98.69300079345703,0.4067789912223816,3.5844478607177734,76.05825805664062,0.07330299913883209,0.13927699625492096,0.9505059719085693,84.49295806884766,98.73429870605469,50.33031463623047,25.72794532775879,0.7956619262695312,-0.44985198974609375,0.8213807940483093,-0.566453218460083,-0.06681191176176071,0.5608451962471008,0.8234182000160217,-0.0862218365073204,0.10385485738515854,0.03334959223866463,0.9940325021743774,0.0
710732,18.020000457763672,98.68599700927734,0.6221330165863037,4.240080833435059,75.82376098632812,0.09773799777030945,0.13927699625492096,0.9529489874839783,85.51424407958984,99.38744354248047,50.46209716796875,25.361669540405273,0.301300048828125,-0.2344970703125,0.8160646557807922,-0.5742727518081665,-0.0651819258928299,0.5687323808670044,0.8179841637611389,-0.08628055453300476,0.10286644101142883,0.033339209854602814,0.9941356182098389,0.0
710742,18.010000228881836,98.6729965209961,0.34935200214385986,4.077369213104248,76.06304168701172,0.11239899694919586,0.1343899965286255,0.9651659727096558,86.54691314697266,100.06501770019531,51.09983444213867,24.96320152282715,0.34775543212890625,0.2392730712890625,0.8105982542037964,-0.5821484327316284,-0.0635063424706459,0.5766629576683044,0.81239253282547,-0.08647102117538452,0.1019311398267746,0.033471278846263885,0.9942275285720825,0.0
710752,18.020000457763672,98.66799926757812,0.29192399978637695,3.503092050552368,76.58467864990234,0.10995499789714813,0.1343899965286255,0.9847139716148376,87.52105712890625,100.4374771118164,51.268310546875,25.316364288330078,-0.27857208251953125,0.5216445922851562,0.8049391508102417,-0.5901252627372742,-0.061843227595090866,0.5846973657608032,0.8066127300262451,-0.08662525564432144,0.10100337117910385,0.03356825187802315,0.994318962097168,0.0
710762,18.010000228881836,98.64299774169922,-0.3014949858188629,3.7423739433288574,75.49833679199219,0.16126799583435059,0.16615499556064606,0.9896010160446167,88.6124496459961,101.35285186767578,51.18804168701172,24.31031036376953,0.8097152709960938,-1.086334228515625,0.7991896271705627,-0.5981144309043884,-0.05961892008781433,0.5927416086196899,0.8006805777549744,-0.08698827028274536,0.09976474940776825,0.03418128564953804,0.9944230914115906,0.0
710772,18.020000457763672,98.63899993896484,1.0576269626617432,2.8235299587249756,75.38826751708984,0.15393799543380737,0.18081599473953247,0.9920439720153809,89.63268280029297,101.88452911376953,51.13011169433594,24.25815773010254,0.03980255126953125,-0.11008453369140625,0.7933520674705505,-0.6060581207275391,-0.05731833726167679,0.6007598042488098,0.7946608066558838,-0.08718302100896835,0.09838671237230301,0.03473205119371414,0.9945412874221802,0.0
710782,18.010000228881836,98.62699890136719,1.8472590446472168,2.5076780319213867,75.43612670898438,0.17837199568748474,0.17104199528694153,0.9920439720153809,90.65470123291016,102.39878845214844,51.18270492553711,24.2534236907959,0.005950927734375,0.04785919189453125,0.7874268889427185,-0.6139539480209351,-0.05494394898414612,0.6087101101875305,0.7885404825210571,-0.08760718256235123,0.09711239486932755,0.03553908318281174,0.9946379661560059,0.0
710792,18.010000228881836,98.61900329589844,2.0338990688323975,2.4454638957977295,74.25885772705078,0.18081599473953247,0.17837199568748474,0.994488000869751,91.6436767578125,102.73150634765625,49.637054443359375,24.6218204498291,-0.360137939453125,-1.1772689819335938,0.7814089059829712,-0.6218070387840271,-0.052492670714855194,0.6166258454322815,0.7823240160942078,-0.08798171579837799,0.09577402472496033,0.036381129175424576,0.9947372674942017,0.0
710802,18.010000228881836,98.60399627685547,2.1535398960113525,1.607975959777832,74.26364135742188,0.16615499556064606,0.16615499556064606,1.0018179416656494,92.6617202758789,103.17186737060547,49.50886535644531,24.754777908325195,-0.11261749267578125,0.00476837158203125,0.7752571702003479,-0.6296452879905701,-0.0502244234085083,0.6245264410972595,0.775996208190918,-0.08829304575920105,0.09456734359264374,0.03708310052752495,0.9948267936706543,0.0
710812,18.010000228881836,98.59400177001953,2.2013959884643555,2.0195419788360596,73.8903579711914,0.15638099610805511,0.16126799583435059,1.0018179416656494,93.66370391845703,103.513427734375,48.789527893066406,25.1008358001709,-0.3087005615234375,-0.37328338623046875,0.76902174949646,-0.6374134421348572,-0.04805267974734306,0.6323598027229309,0.7695983052253723,-0.0885365679860115,0.09341571480035782,0.03769972175359726,0.9949123859405518,0.0
710822,18.010000228881836,98.58899688720703,2.900099992752075,1.9812569618225098,73.45965576171875,0.15638099610805511,0.12950299680233002,1.0042619705200195,94.60731506347656,103.55329895019531,47.31758117675781,26.142078399658203,-0.9008636474609375,-0.4307098388671875,0.7626754641532898,-0.6451343297958374,-0.046121757477521896,0.6401199698448181,0.7631065845489502,-0.0889601856470108,0.09258713573217392,0.03832404315471649,0.9949659705162048,0.0
710832,18.010000228881836,98.58999633789062,2.526819944381714,1.7898309230804443,73.25386810302734,0.15882399678230286,0.1270589977502823,1.0042619705200195,95.44416809082031,103.06793975830078,44.85000228881836,28.403871536254883,-1.9273757934570312,-0.20578765869140625,0.7562490105628967,-0.6527895331382751,-0.04418930038809776,0.6478133201599121,0.7565348744392395,-0.08939853310585022,0.09178921580314636,0.0389808751642704,0.9950143694877625,0.0
710842,18.010000228881836,98.56099700927734,2.9718849658966064,1.7754740715026855,73.08158874511719,0.15638099610805511,0.1148419976234436,1.0091489553451538,96.43926239013672,103.33609008789062,44.258506774902344,28.823081970214844,-0.36264801025390625,-0.1722869873046875,0.7497065663337708,-0.6604127287864685,-0.04236047714948654,0.6554668545722961,0.749856173992157,-0.08987844735383987,0.09112117439508438,0.03961632028222084,0.9950506687164307,0.0
710852,18.010000228881836,98.55599975585938,3.0675981044769287,1.316051959991455,72.81837463378906,0.1490509957075119,0.10018099844455719,1.0164790153503418,97.37602996826172,103.30758666992188,42.89140701293945,29.926971435546875,-0.9472503662109375,-0.263214111328125,0.7430310845375061,-0.6680185198783875,-0.040684934705495834,0.6630948781967163,0.7430582642555237,-0.09038162231445312,0.09060792624950409,0.04017813503742218,0.995074987411499,0.0
710862,18.010000228881836,98.53399658203125,3.637089967727661,0.4594210088253021,73.04808807373047,0.13683299720287323,0.08307699859142303,1.0164790153503418,98.40442657470703,103.7039794921875,43.03310775756836,30.01498031616211,-0.06539154052734375,0.22971343994140625,0.7362708449363708,-0.6755492687225342,-0.039212919771671295,0.6706387996673584,0.7361940741539001,-0.09089135378599167,0.09026994556188583,0.04062269628047943,0.9950876832008362,0.0
710872,18.010000228881836,98.53299713134766,3.785444974899292,0.21056799590587616,72.62216186523438,0.13683299720287323,0.06841599941253662,1.0091489553451538,99.33773040771484,103.62943267822266,41.43098068237305,31.191184997558594,-1.0151824951171875,-0.42592620849609375,0.7294781804084778,-0.682955801486969,-0.037843234837055206,0.6780465841293335,0.7293029427528381,-0.09148494899272919,0.09007938951253891,0.041076548397541046,0.9950863122940063,0.0
710882,18.010000228881836,98.5009994506836,4.546361923217773,-0.31106600165367126,72.51209259033203,0.10018099844455719,0.024434000253677368,1.0018179416656494,100.44879913330078,104.39037322998047,42.147621154785156,30.36447525024414,0.696990966796875,-0.11006927490234375,0.722645103931427,-0.6902256011962891,-0.03703863173723221,0.6852919459342957,0.7224211096763611,-0.09209848195314407,0.09032624959945679,0.04117199406027794,0.9950599670410156,0.0
710892,18.010000228881836,98.49600219726562,4.23529577255249,-0.04785599932074547,71.72246551513672,0.07818999886512756,0.0024429999757558107,0.9969310164451599,101.4939193725586,104.80760192871094,41.38552474975586,30.336944580078125,-0.008544921875,-0.7896347045898438,0.7157659530639648,-0.6973832249641418,-0.036538682878017426,0.692413330078125,0.7155210971832275,-0.09269733726978302,0.090789794921875,0.04104947671294212,0.9950228333473206,0.0
710902,18.010000228881836,98.48799896240234,3.924229145050049,-0.46899300813674927,72.157958984375,0.058642998337745667,-0.019547000527381897,0.9920439720153809,102.50270080566406,105.02425384521484,41.33291244506836,30.82503890991211,-0.39653778076171875,0.43548583984375,0.7088425755500793,-0.7044302225112915,-0.03632645308971405,0.6994109153747559,0.7086028456687927,-0.0933050587773323,0.0914679542183876,0.04073122516274452,0.9949738383293152,0.0
710912,18.010000228881836,98.46600341796875,3.795016050338745,-0.23928199708461761,71.72246551513672,0.04153800010681152,-0.03665100038051605,0.9896010160446167,103.59783172607422,105.64176940917969,41.402061462402344,30.32040786743164,0.4105682373046875,-0.43548583984375,0.7018612623214722,-0.7113851308822632,-0.03634995222091675,0.7063067555427551,0.7016488909721375,-0.09391025453805923,0.09231127053499222,0.04023749753832817,0.9949160218238831,0.0
710922,18.010000228881836,98.45600128173828,3.9146571159362793,-0.6987040042877197,71.4353256225586,0.012217000126838684,-0.053755998611450195,0.9871580004692078,104.67048645019531,106.12334442138672,41.288673400878906,30.146650314331055,0.13582611083984375,-0.28714752197265625,0.6948232054710388,-0.7182433605194092,-0.03669651597738266,0.7131006121635437,0.6946722865104675,-0.09443232417106628,0.0933174416422844,0.03944520652294159,0.9948539137840271,0.0
710932,18.010000228881836,98.44499969482422,4.11086893081665,-0.39720800518989563,71.76553344726562,0.007329999934881926,-0.06841599941253662,0.9896010160446167,105.73037719726562,106.51998138427734,41.564640045166016,30.20088768005371,-0.03267669677734375,0.33020782470703125,0.6876947283744812,-0.72504723072052,-0.037174489349126816,0.7198282480239868,0.6876163482666016,-0.09502898901700974,0.09446229040622711,0.03859143704175949,0.9947793483734131,0.0
710942,18.010000228881836,98.43599700927734,3.8285160064697266,-0.09092699736356735,71.25347137451172,-0.007329999934881926,-0.09529399871826172,0.9871580004692078,106.76085662841797,106.76020812988281,40.66123962402344,30.59223747253418,-0.3527374267578125,-0.512054443359375,0.6805070042610168,-0.7317584156990051,-0.03793717175722122,0.7264434695243835,0.6805264353752136,-0.09572434425354004,0.09586434811353683,0.03758162632584572,0.9946838617324829,0.0
710952,18.010000228881836,98.4209976196289,3.2303099632263184,-0.37806499004364014,71.22954559326172,-0.04153800010681152,-0.11728599667549133,0.9920439720153809,107.8152847290039,107.09431457519531,40.466609954833984,30.7629337310791,-0.1457977294921875,-0.02393341064453125,0.6732082366943359,-0.7384183406829834,-0.03909319266676903,0.7329999804496765,0.6733691096305847,-0.09635596722364426,0.09747515618801117,0.03621206805109978,0.9945780634880066,0.0
710962,18.010000228881836,98.40399932861328,2.6560330390930176,0.13878299295902252,70.81319427490234,-0.07574699819087982,-0.11972899734973907,0.9920439720153809,108.90924835205078,107.5990982055664,40.3073616027832,30.505836486816406,0.20131683349609375,-0.416351318359375,0.6658416390419006,-0.7449918389320374,-0.040512874722480774,0.7394828200340271,0.6661807298660278,-0.09678761661052704,0.09909487515687943,0.034486398100852966,0.9944792985916138,0.0
710972,18.010000228881836,98.40399932861328,2.4119648933410645,0.8662009835243225,70.61698150634766,-0.10751199722290039,-0.12461599707603455,0.994488000869751,109.89361572265625,107.55573272705078,39.06248474121094,31.554494857788086,-0.8976821899414062,-0.19622039794921875,0.6583883166313171,-0.7514941096305847,-0.042198099195957184,0.7459055185317993,0.6589415669441223,-0.09705883264541626,0.10074521601200104,0.03242634981870651,0.9943827390670776,0.0
710982,18.010000228881836,98.3740005493164,2.550747871398926,-0.004784999880939722,71.28697204589844,-0.10751199722290039,-0.13683299720287323,1.0018179416656494,111.0334701538086,108.24362182617188,40.40503692626953,30.88192367553711,0.5977249145507812,0.6699905395507812,0.6508079171180725,-0.7579681873321533,-0.043960317969322205,0.752291738986969,0.6515845656394958,-0.09743794053792953,0.10249871015548706,0.030342135578393936,0.9942693114280701,0.0
710992,18.010000228881836,98.35800170898438,2.344965934753418,0.8327019810676575,70.84668731689453,-0.09040799736976624,-0.1343899965286255,1.0067050457000732,112.1985855102539,109.03224182128906,40.897117614746094,29.9495792388916,0.7732772827148438,-0.44026947021484375,0.6431246995925903,-0.7644037008285522,-0.0455724373459816,0.758637547492981,0.6441109776496887,-0.09792660176753998,0.10420916229486465,0.02840580604970455,0.9941486716270447,0.0
711002,18.010000228881836,98.35099792480469,2.0530409812927246,1.062412977218628,70.63134002685547,-0.1148419976234436,-0.12950299680233002,1.0164790153503418,113.30960083007812,109.53010559082031,40.90268325805664,29.728660583496094,0.178741455078125,-0.21535491943359375,0.6353020668029785,-0.770811140537262,-0.047335654497146606,0.7649747133255005,0.6365237832069397,-0.09823745489120483,0.10585279017686844,0.026199625805020332,0.9940356016159058,0.0
711012,18.010000228881836,98.33300018310547,1.7994019985198975,1.239482045173645,69.65028381347656,-0.1221729964017868,-0.1270589977502823,1.0335830450057983,114.4643325805664,110.2127685546875,40.6168212890625,29.033472061157227,0.5502090454101562,-0.9810638427734375,0.6272808909416199,-0.7772409319877625,-0.049136679619550705,0.7713445425033569,0.6287485361099243,-0.09850073605775833,0.10745342075824738,0.023886067792773247,0.9939221143722534,0.0
711022,18.010000228881836,98.31600189208984,2.1439690589904785,1.6319050788879395,70.71747589111328,-0.13927699625492096,-0.13927699625492096,1.0482439994812012,115.65128326416016,111.013671875,42.56865310668945,28.14881134033203,0.7937240600585938,1.0671844482421875,0.6190704703330994,-0.783667802810669,-0.05114423856139183,0.7777127623558044,0.6208114624023438,-0.09877000749111176,0.10915380716323853,0.021369822323322296,0.9937940835952759,0.0
711032,18.010000228881836,98.31800079345703,1.8376870155334473,2.0338990688323975,69.91827392578125,-0.12950299680233002,-0.1343899965286255,1.0531309843063354,116.7044448852539,111.15755462646484,41.13967514038086,28.77860450744629,-0.566650390625,-0.7991943359375,0.6107545495033264,-0.7900409698486328,-0.053041599690914154,0.7840322256088257,0.6127608418464661,-0.09908191859722137,0.11078058928251266,0.018928170204162598,0.9936635494232178,0.0
711042,18.010000228881836,98.28500366210938,1.220339059829712,2.148754119873047,69.61199188232422,-0.1417199969291687,-0.1343899965286255,1.0653480291366577,117.93344116210938,112.11901092529297,42.151527404785156,27.460464477539062,1.1060256958007812,-0.3062896728515625,0.6022723317146301,-0.7963910698890686,-0.0550321564078331,0.7903404831886292,0.6045603156089783,-0.09933900833129883,0.11238295584917068,0.01633474975824356,0.9935296177864075,0.0
711052,18.010000228881836,98.27899932861328,0.5599200129508972,2.857029914855957,69.11428833007812,-0.12950299680233002,-0.13927699625492096,1.0873390436172485,119.09463500976562,112.72120666503906,42.105716705322266,27.008577346801758,0.36330413818359375,-0.49770355224609375,0.5935412049293518,-0.8027855157852173,-0.05695103853940964,0.7966872453689575,0.5961065888404846,-0.09972906857728958,0.11400993168354034,0.013820895925164223,0.9933823943138123,0.0
711062,18.010000228881836,98.27100372314453,0.043069999665021896,2.4741780757904053,68.8702163696289,-0.10751199722290039,-0.12950299680233002,1.0922260284423828,120.20905303955078,113.07122802734375,41.70491409301758,27.165302276611328,-0.1428375244140625,-0.24407958984375,0.5847048163414001,-0.8091241717338562,-0.05863041803240776,0.8029799461364746,0.5875239968299866,-0.10019145905971527,0.11551409214735031,0.011503132991492748,0.9932381510734558,0.0
711072,18.010000228881836,98.23999786376953,0.3445659875869751,3.1680970191955566,69.24349975585938,-0.11728599667549133,-0.09529399871826172,1.119104027748108,121.47759246826172,114.13545989990234,43.59416580200195,25.649330139160156,1.3013381958007812,0.37328338623046875,0.5755990743637085,-0.8155137896537781,-0.06018524616956711,0.8093684315681458,0.5786659717559814,-0.10033918917179108,0.116655133664608,0.009042860940098763,0.9931302070617676,0.0
711082,18.0,98.23100280761719,0.8231300115585327,2.991028070449829,68.45386505126953,-0.10506799817085266,-0.07574699819087982,1.119104027748108,122.70099639892578,114.95219421386719,43.744564056396484,24.709304809570312,0.7656784057617188,-0.7896347045898438,0.5664331316947937,-0.8218073844909668,-0.061526451259851456,0.8156773447990417,0.5697250962257385,-0.10041528195142746,0.11757516860961914,0.006692565977573395,0.9930403232574463,0.0
711092,18.010000228881836,98.2229995727539,1.220339059829712,2.6991028785705566,68.09015655517578,-0.07818999886512756,-0.0879639983177185,1.1313220262527466,123.87308502197266,115.4867935180664,43.62841796875,24.46173667907715,0.1953582763671875,-0.36371612548828125,0.5570877194404602,-0.8280818462371826,-0.06271341443061829,0.8219422101974487,0.5605874061584473,-0.10075811296701431,0.11859229952096939,0.004584060050547123,0.9929313063621521,0.0
711102,18.010000228881836,98.20600128173828,1.038485050201416,2.2971091270446777,67.93701934814453,-0.07818999886512756,-0.06841599941253662,1.138651967048645,125.0742416381836,116.13335418701172,43.980892181396484,23.95612907409668,0.4228057861328125,-0.15313720703125,0.5476224422454834,-0.834290087223053,-0.0637882724404335,0.828163743019104,0.5513191223144531,-0.1009528785943985,0.11939165741205215,0.0024566855281591415,0.9928430318832397,0.0
711112,18.010000228881836,98.18800354003906,0.5742769837379456,2.928813934326172,67.52066802978516,-0.05619899928569794,-0.07330299913883209,1.1508690118789673,126.31108093261719,116.92269134521484,44.41270065307617,23.107973098754883,0.7028121948242188,-0.416351318359375,0.537980854511261,-0.8404697775840759,-0.0647030621767044,0.8343408107757568,0.5418570637702942,-0.10132056474685669,0.12021666020154953,0.0005238752928562462,0.9927464127540588,0.0
711122,18.0,98.17400360107422,0.4977070093154907,3.321237087249756,67.56852722167969,-0.07085999846458435,-0.04398199915885925,1.1508690118789673,127.54668426513672,117.6727066040039,45.18318557739258,22.385337829589844,0.6150665283203125,0.0478515625,0.5282874703407288,-0.8465285897254944,-0.06558077782392502,0.8404386639595032,0.5323396921157837,-0.1013743206858635,0.12072748690843582,-0.0015620847698301077,0.9926832914352417,0.0
711132,18.010000228881836,98.15799713134766,0.45463600754737854,2.914457082748413,67.79823303222656,-0.08063399791717529,-0.051311999559402466,1.1557559967041016,128.79808044433594,118.46981811523438,46.22019958496094,21.578025817871094,0.6942596435546875,0.229705810546875,0.5184783935546875,-0.8524942994117737,-0.06657909601926804,0.8464453220367432,0.5227217078208923,-0.10144830495119095,0.12128640711307526,-0.003757056314498186,0.9926093220710754,0.0
711142,18.010000228881836,98.14900207519531,0.7322030067443848,3.7423739433288574,67.43452453613281,-0.014659999869763851,-0.024434000253677368,1.1728609800338745,130.0037078857422,119.02086639404297,46.08437728881836,21.35015106201172,0.17864990234375,-0.36370086669921875,0.5084718465805054,-0.8584774136543274,-0.0668739452958107,0.8524554967880249,0.5128225088119507,-0.1016470342874527,0.1215561032295227,-0.005322658456861973,0.9925691485404968,0.0
711152,18.010000228881836,98.12999725341797,0.5024920105934143,3.6083760261535645,67.58287811279297,0.0024429999757558107,-0.03420799970626831,1.1753039360046387,131.2523193359375,119.74913024902344,46.85941696166992,20.72346305847168,0.5377197265625,0.14835357666015625,0.49836835265159607,-0.8643667697906494,-0.06706828624010086,0.8583519458770752,0.5028154850006104,-0.10201963782310486,0.12190533429384232,-0.00672508217394352,0.9925177693367004,0.0
711162,18.0,98.10900115966797,0.5120639801025391,2.914457082748413,66.73582458496094,-0.019547000527381897,-0.021990999579429626,1.1850780248641968,132.5582733154297,120.7236328125,47.25164031982422,19.484193801879883,1.0172576904296875,-0.8470535278320312,0.48811978101730347,-0.8701706528663635,-0.06738865375518799,0.864191472530365,0.49267810583114624,-0.10217983275651932,0.12211477756500244,-0.008360953070223331,0.9924796223640442,0.0
711172,18.010000228881836,98.1050033569336,0.3062810003757477,2.1918249130249023,65.81219482421875,-0.0024429999757558107,-0.017103999853134155,1.187520980834961,133.77122497558594,121.212158203125,46.4099235534668,19.40228271484375,0.0321807861328125,-0.9236373901367188,0.47778525948524475,-0.8758764266967773,-0.06753414124250412,0.8699277639389038,0.48243385553359985,-0.10238480567932129,0.12225716561079025,-0.009832123294472694,0.9924485683441162,0.0
711182,18.010000228881836,98.08799743652344,0.09092699736356735,3.0675981044769287,64.70671081542969,0.03665100038051605,0.0048859999515116215,1.1997389793395996,135.008544921875,121.78529357910156,45.6154899597168,19.091230392456055,0.2192535400390625,-1.105499267578125,0.467290997505188,-0.8815432190895081,-0.067229725420475,0.8756225109100342,0.4719753563404083,-0.10258614271879196,0.12216486036777496,-0.010930529795587063,0.9924484491348267,0.0
711192,18.0,98.06199645996094,1.1437690258026123,2.4119648933410645,63.519866943359375,0.03176400065422058,-0.0048859999515116215,1.2046250104904175,136.34600830078125,122.80091857910156,45.81105041503906,17.708833694458008,1.124969482421875,-1.1868515014648438,0.45667994022369385,-0.8871031403541565,-0.0670112892985344,0.8812044858932495,0.4614115357398987,-0.10284686833620071,0.12215553224086761,-0.012082801200449467,0.9924362301826477,0.0
711202,18.010000228881836,98.05699920654297,0.8805580139160156,2.340179920196533,60.69633865356445,0.03909499943256378,0.014659999869763851,1.2290599346160889,137.59617614746094,123.3537826538086,43.3465576171875,17.349815368652344,0.1905364990234375,-2.8235435485839844,0.44579797983169556,-0.8926493525505066,-0.06663627922534943,0.8867895603179932,0.4505571722984314,-0.1029655858874321,0.12193558365106583,-0.013190764002501965,0.992449164390564,0.0
711212,18.0,98.04100036621094,1.6127619743347168,2.3162519931793213,59.002220153808594,0.017103999853134155,0.017103999853134155,1.2363899946212769,138.8587188720703,123.91519165039062,42.03630447387695,16.965932846069336,0.25726318359375,-1.69415283203125,0.434784859418869,-0.8980791568756104,-0.06644600629806519,0.8922762870788574,0.43959248065948486,-0.10296009480953217,0.12167543172836304,-0.014522966928780079,0.9924625158309937,0.0
711222,18.0,98.0260009765625,1.1533399820327759,2.3353939056396484,57.32245635986328,0.03909499943256378,0.021990999579429626,1.238834023475647,140.1238555908203,124.44941711425781,40.706363677978516,16.616113662719727,0.22894287109375,-1.679779052734375,0.42368677258491516,-0.9033979177474976,-0.06603676080703735,0.8976430296897888,0.4285164773464203,-0.10300397127866745,0.12135136127471924,-0.01563628390431404,0.9924852848052979,0.0
711232,18.0,98.00199890136719,1.3543369770050049,2.1296119689941406,56.52325439453125,0.051311999559402466,0.00977300014346838,1.2412769794464111,141.4686279296875,125.32492065429688,41.055335998535156,15.467926979064941,0.9419097900390625,-0.799224853515625,0.41249361634254456,-0.9085972905158997,-0.06556742638349533,0.9028703570365906,0.417340487241745,-0.10320445895195007,0.1211351752281189,-0.016627971082925797,0.992495596408844,0.0
711242,18.0,97.99099731445312,1.2586239576339722,1.2346960306167603,55.63312530517578,0.03909499943256378,0.00977300014346838,1.2437210083007812,142.7758331298828,125.98287963867188,40.793907165527344,14.839228630065918,0.497467041015625,-0.89013671875,0.4012147784233093,-0.9136596322059631,-0.06520697474479675,0.9079691767692566,0.4060911536216736,-0.10334884375333786,0.1209055706858635,-0.017741113901138306,0.992504358291626,0.0
711252,18.0,97.96900177001953,1.9238290786743164,1.3112659454345703,54.07300567626953,0.058642998337745667,0.019547000527381897,1.2534949779510498,144.14219665527344,126.88903045654297,40.4887809753418,13.584239959716797,1.0017852783203125,-1.5601310729980469,0.3897906243801117,-0.9186325669288635,-0.0646270215511322,0.9129769802093506,0.3946699798107147,-0.10347802191972733,0.1205645501613617,-0.01866849884390831,0.9925288558006287,0.0
711262,18.0,97.96099853515625,2.230109930038452,1.4787640571594238,52.3358154296875,0.024434000253677368,-0.012217000126838684,1.2559380531311035,145.443115234375,127.43695831298828,39.17331314086914,13.162520408630371,0.287628173828125,-1.7372055053710938,0.37826231122016907,-0.9234493374824524,-0.06448259204626083,0.917818546295166,0.3832002878189087,-0.10375766456127167,0.12052462995052338,-0.019935984164476395,0.9925090670585632,0.0
711272,18.0,97.93199920654297,1.3256230354309082,1.9046859741210938,50.0387077331543,0.051311999559402466,-0.012217000126838684,1.2681549787521362,146.8631591796875,128.51394653320312,38.609561920166016,11.429170608520508,1.3778839111328125,-2.2971267700195312,0.36656126379966736,-0.9281837344169617,-0.06408581137657166,0.922561526298523,0.3715302646160126,-0.10413692146539688,0.12046794593334198,-0.02095082588493824,0.9924950003623962,0.0
711282,18.0,97.92500305175781,1.6701899766921997,0.6843469738960266,48.70351028442383,0.03420799970626831,-0.017103999853134155,1.282815933227539,148.20506286621094,129.16143798828125,37.9574089050293,10.746115684509277,0.525604248046875,-1.3352241516113281,0.35466161370277405,-0.9328108429908752,-0.06386102735996246,0.927204430103302,0.3596830666065216,-0.10449379682540894,0.12044260650873184,-0.022152574732899666,0.9924719929695129,0.0
711292,18.0,97.90899658203125,1.9333999156951904,1.9812569618225098,46.9854621887207,0.07085999846458435,-0.024434000253677368,1.2852599620819092,149.55067443847656,129.78945922851562,36.909969329833984,10.07551097869873,0.49957275390625,-1.7180633544921875,0.3426762521266937,-0.9373171925544739,-0.0633145198225975,0.9316961765289307,0.34771624207496643,-0.10504555702209473,0.12047640979290009,-0.02299356833100319,0.9924487471580505,0.0
711302,18.0,97.88600158691406,1.7994019985198975,2.0386838912963867,46.05704879760742,0.046424999833106995,-0.019547000527381897,1.2950339317321777,150.9597930908203,130.68002319335938,37.261558532714844,8.795500755310059,1.0485382080078125,-0.9284324645996094,0.33054548501968384,-0.9416863918304443,-0.06297408789396286,0.9360724091529846,0.3356267809867859,-0.10546114295721054,0.12044701725244522,-0.024088885635137558,0.992426335811615,0.0
711312,18.0,97.87999725341797,2.2396810054779053,1.5792620182037354,45.69812774658203,0.03665100038051605,-0.024434000253677368,1.3096940517425537,152.2816162109375,131.1154327392578,37.068538665771484,8.629591941833496,0.1262664794921875,-0.3589324951171875,0.31821778416633606,-0.9459391832351685,-0.0627363920211792,0.9403346180915833,0.32335424423217773,-0.10588594526052475,0.12044764310121536,-0.02529868856072426,0.9923961758613586,0.0
711322,18.0,97.85199737548828,1.7228319644927979,1.3926219940185547,44.78885269165039,0.05619899928569794,-0.03420799970626831,1.3096940517425537,153.71083068847656,132.04019165039062,37.515663146972656,7.27319860458374,1.1141204833984375,-0.9092788696289062,0.30582958459854126,-0.9500429034233093,-0.06233833730220795,0.9444257616996765,0.3110063076019287,-0.10646174848079681,0.12053073942661285,-0.026315055787563324,0.9923596382141113,0.0
711332,18.0,97.84500122070312,1.5601199865341187,1.5122630596160889,44.372501373291016,0.019547000527381897,-0.046424999833106995,1.3048069477081299,155.05963134765625,132.54180908203125,37.418853759765625,6.953652381896973,0.254302978515625,-0.41635894775390625,0.2934281826019287,-0.9539474248886108,-0.0623183399438858,0.948327898979187,0.2986913025379181,-0.10703622549772263,0.1207207664847374,-0.027691049501299858,0.9922990798950195,0.0
711342,18.0,97.83899688720703,1.607975959777832,1.5170490741729736,44.65485382080078,0.03665100038051605,-0.051311999559402466,1.2999199628829956,156.32395935058594,132.61573791503906,36.976165771484375,7.678684711456299,-0.603759765625,0.2823486328125,0.281020849943161,-0.9576873779296875,-0.06214139610528946,0.9520500302314758,0.2863547205924988,-0.10770688205957413,0.12094388157129288,-0.02889411337673664,0.9922376275062561,0.0
711352,18.0,97.81099700927734,0.6891319751739502,2.014755964279175,44.272003173828125,0.048868998885154724,-0.02932099997997284,1.3023639917373657,157.6984100341797,133.20692443847656,37.13630676269531,7.135701656341553,0.4452362060546875,-0.3828468322753906,0.2685563862323761,-0.9612805247306824,-0.06177807226777077,0.9556422233581543,0.27393409609794617,-0.10819967091083527,0.12093323469161987,-0.029980294406414032,0.9922066926956177,0.0
711362,18.0,97.79299926757812,0.6747750043869019,1.115054965019226,43.65943908691406,0.019547000527381897,-0.051311999559402466,1.3072509765625,159.0899658203125,133.85305786132812,37.20405960083008,6.455389022827148,0.5524749755859375,-0.6125679016113281,0.255985826253891,-0.9647060632705688,-0.06174841523170471,0.9590619802474976,0.2614527642726898,-0.10881976038217545,0.12112323939800262,-0.031364504247903824,0.9921407103538513,0.0
711372,18.0,97.76699829101562,1.2442669868469238,0.602990984916687,43.71208190917969,0.058642998337745667,-0.04398199915885925,1.3170249462127686,160.5662841796875,134.87319946289062,38.79008483886719,4.921998023986816,1.30316162109375,0.05263519287109375,0.24328164756298065,-0.9680154323577881,-0.06131448969244957,0.9623506665229797,0.24879108369350433,-0.10946875065565109,0.12122179567813873,-0.032374560832977295,0.9920962452888489,0.0
711382,18.0,97.75700378417969,1.3447660207748413,1.2538390159606934,42.93680953979492,0.03176400065422058,-0.03420799970626831,1.3243550062179565,161.9840087890625,135.5808563232422,38.80952453613281,4.127293109893799,0.6429595947265625,-0.7752723693847656,0.23047024011611938,-0.9711582660675049,-0.061109509319067,0.9655009508132935,0.23604567348957062,-0.10995262861251831,0.1212058886885643,-0.03366073593497276,0.9920554161071777,0.0
711392,18.0,97.73500061035156,1.4261219501495361,0.08135499805212021,42.23810577392578,0.026877999305725098,-0.04398199915885925,1.3390159606933594,163.44985961914062,136.484375,39.365577697753906,2.8725366592407227,1.0363922119140625,-0.6987113952636719,0.21746982634067535,-0.9741607308387756,-0.060967519879341125,0.9685046672821045,0.22312313318252563,-0.11051706224679947,0.1212644949555397,-0.03501345217227936,0.9920014142990112,0.0
711402,18.0,97.72799682617188,1.0576269626617432,-0.12921200692653656,41.72125244140625,-0.0048859999515116215,-0.04398199915885925,1.341459035873413,164.83126831054688,136.94766235351562,39.03833770751953,2.682922124862671,0.1399993896484375,-0.5168609619140625,0.20440679788589478,-0.9769752025604248,-0.061127856373786926,0.9713408946990967,0.21017301082611084,-0.11101076006889343,0.1213020384311676,-0.03668488189578056,0.991936445236206,0.0
711412,18.0,97.6989974975586,0.47377800941467285,0.48335000872612,40.83591079711914,0.0024429999757558107,-0.03909499943256378,1.348789930343628,166.3227081298828,137.9102325439453,39.551177978515625,1.2847408056259155,1.150543212890625,-0.8853492736816406,0.1912384033203125,-0.9796335101127625,-0.06120013818144798,0.9740234613418579,0.19710658490657806,-0.11147395521402359,0.12126641720533371,-0.03829251602292061,0.9918800592422485,0.0
711422,18.0,97.69000244140625,0.3828510046005249,-0.3206380009651184,39.510284423828125,-0.026877999305725098,-0.02932099997997284,1.356119990348816,167.74481201171875,138.50131225585938,38.752166748046875,0.7581349015235901,0.39324951171875,-1.3256340026855469,0.1779695451259613,-0.9821096658706665,-0.06153568997979164,0.9765547513961792,0.18396636843681335,-0.11178690195083618,0.12110735476016998,-0.04019855335354805,0.9918240904808044,0.0
711432,18.0,97.6760025024414,0.5120639801025391,-0.4402790069580078,39.07000732421875,-0.06597299873828888,-0.04398199915885925,1.3707809448242188,169.14451599121094,138.94964599609375,38.47694778442383,0.5930635929107666,0.1222686767578125,-0.4402961730957031,0.16451501846313477,-0.9844062328338623,-0.062276411801576614,0.9789171814918518,0.17069365084171295,-0.11217837780714035,0.12105914205312729,-0.04250866547226906,0.9917336702346802,0.0
711442,18.0,97.66799926757812,1.0001989603042603,0.5407770276069641,37.60559844970703,-0.026877999305725098,-0.024434000253677368,1.3878849744796753,170.47119140625,139.0257568359375,36.350826263427734,1.2547898292541504,-0.6206207275390625,-1.4644126892089844,0.15087340772151947,-0.9865689277648926,-0.06259544938802719,0.9811466336250305,0.15717826783657074,-0.112452432513237,0.1207805871963501,-0.044449470937252045,0.9916825294494629,0.0
711452,18.0,97.63700103759766,0.49292099475860596,1.2442669868469238,36.32304763793945,-0.02932099997997284,-0.026877999305725098,1.4025459289550781,171.92730712890625,139.694580078125,35.85289001464844,0.4701693058013916,0.6139068603515625,-1.2825698852539062,0.1370566487312317,-0.9885613322257996,-0.06293823570013046,0.9832072257995605,0.14349207282066345,-0.11275121569633484,0.12049249559640884,-0.04642825946211815,0.9916269183158875,0.0
711462,17.989999771118164,97.61799621582031,1.2011959552764893,1.9238290786743164,34.60499954223633,-0.06108599901199341,-0.026877999305725098,1.4025459289550781,173.40127563476562,140.41184997558594,35.06681442260742,-0.46179521083831787,0.7213287353515625,-1.7180595397949219,0.12321338057518005,-0.9903402924537659,-0.06359104812145233,0.9850766062736511,0.12981437146663666,-0.11301133036613464,0.12017456442117691,-0.04871777817606926,0.9915556907653809,0.0
711472,18.0,97.60299682617188,1.3495509624481201,1.9286149740219116,33.65265655517578,-0.051311999559402466,-0.026877999305725098,1.4025459289550781,174.85720825195312,141.001220703125,34.72553253173828,-1.0728650093078613,0.4799957275390625,-0.952362060546875,0.10934635996818542,-0.9919316172599792,-0.06414317339658737,0.9867545366287231,0.1161009892821312,-0.11329248547554016,0.1198253408074379,-0.050905682146549225,0.9914880394935608,0.0
711482,18.0,97.59200286865234,1.038485050201416,1.7132599353790283,32.17867660522461,-0.021990999579429626,-0.03420799970626831,1.4196499586105347,176.26136779785156,141.31222534179688,33.23583984375,-1.057145118713379,-0.0728912353515625,-1.4739913940429688,0.09528356790542603,-0.9933639764785767,-0.06440763920545578,0.9882495403289795,0.10216342657804489,-0.1136857196688652,0.11951126158237457,-0.05281867831945419,0.9914258718490601,0.0
711492,18.0,97.56700134277344,0.799202024936676,1.550549030303955,31.37468910217285,-0.07574699819087982,-0.012217000126838684,1.4196499586105347,177.73727416992188,141.93605041503906,33.160888671875,-1.7861924171447754,0.586090087890625,-0.8040065765380859,0.08121621608734131,-0.9945625066757202,-0.06518136709928513,0.9895727634429932,0.08826714754104614,-0.11381398886442184,0.11894836276769638,-0.055258408188819885,0.991360604763031,0.0
711502,18.0,97.5530014038086,0.401993989944458,1.4117649793624878,31.331619262695312,-0.05619899928569794,-0.03909499943256378,1.4269800186157227,179.18551635742188,142.3974151611328,33.42738723754883,-2.095768451690674,0.26092529296875,-0.04307746887207031,0.0670425221323967,-0.9955791234970093,-0.06577847898006439,0.9906740188598633,0.07425907999277115,-0.11423512548208237,0.11861461400985718,-0.057506661862134933,0.9912726879119873,0.0
711512,17.989999771118164,97.5260009765625,0.526419997215271,1.6558330059051514,30.307491302490234,-0.017103999853134155,-0.021990999579429626,1.431867003440857,180.7196044921875,143.24867248535156,33.677207946777344,-3.3697073459625244,1.039520263671875,-1.0241279602050781,0.05281801149249077,-0.9964224696159363,-0.06596977263689041,0.9915980100631714,0.06014366075396538,-0.11452143639326096,0.11807923018932343,-0.059366945177316666,0.9912269115447998,0.0
711522,18.0,97.50299835205078,0.9188429713249207,1.4883350133895874,27.26382064819336,-0.026877999305725098,0.0,1.4514150619506836,182.299560546875,144.28057861328125,32.42587661743164,-5.162022590637207,1.3977508544921875,-3.043680191040039,0.038402531296014786,-0.9970638751983643,-0.06624428182840347,0.9923548698425293,0.04583355784416199,-0.11458713561296463,0.11728674173355103,-0.06133764237165451,0.9912009835243225,0.017715096473693848
711532,17.989999771118164,97.49099731445312,0.8566300272941589,0.6412760019302368,26.057838439941406,-0.03909499943256378,-0.0024429999757558107,1.458745002746582,183.82867431640625,145.00863647460938,32.23422622680664,-6.176374912261963,0.811920166015625,-1.2060165405273438,0.023904576897621155,-0.9974903464317322,-0.06664036959409714,0.9929043650627136,0.031455278396606445,-0.11467631906270981,0.11648455262184143,-0.06342646479606628,0.9911641478538513,0.04977130517363548
711542,17.989999771118164,97.48100280761719,1.2107679843902588,1.5170490741729736,25.622344970703125,-0.019547000527381897,0.0024429999757558107,1.4538580179214478,185.29248046875,145.38865661621094,31.956157684326172,-6.333808898925781,0.1159820556640625,-0.43550682067871094,0.009453849866986275,-0.9977186322212219,-0.06683924049139023,0.9932493567466736,0.017096634954214096,-0.1147274374961853,0.11560826003551483,-0.06530366092920303,0.9911448359489441,0.06650350242853165
711552,17.989999771118164,97.45800018310547,1.7706880569458008,0.7274180054664612,25.694129943847656,-0.04153800010681152,-0.0048859999515116215,1.458745002746582,186.8086395263672,145.99749755859375,32.71004867553711,-7.015919208526611,0.5816497802734375,0.07178115844726562,-0.005052251275628805,-0.9977225661277771,-0.06725689023733139,0.9933783411979675,0.0027112746611237526,-0.11485203355550766,0.11477264761924744,-0.06739204376935959,0.9911020994186401,0.09331061691045761
711562,17.989999771118164,97.4469985961914,1.2251249551773071,1.0528409481048584,24.933210372924805,-0.06841599941253662,-0.024434000253677368,1.4636319875717163,188.26858520507812,146.316650390625,31.966543197631836,-7.033323764801025,-0.0159759521484375,-0.7609195709228516,-0.019618777558207512,-0.9974962472915649,-0.06793833523988724,0.9932754635810852,-0.011691812425851822,-0.11517804116010666,0.11409517377614975,-0.0697413831949234,0.991017758846283,0.10736283659934998
711572,17.989999771118164,97.40599822998047,0.06699900329113007,1.363908052444458,23.10509490966797,-0.06597299873828888,-0.014659999869763851,1.4660760164260864,189.9385223388672,147.61456298828125,32.54377746582031,-9.438663482666016,1.9669952392578125,-1.828125,-0.03419838100671768,-0.9970579743385315,-0.0685930848121643,0.9929732084274292,-0.026118842884898186,-0.11541635543107986,0.11328507214784622,-0.07205839455127716,0.9909449219703674,0.1645096093416214
711582,17.989999771118164,97.40299987792969,0.5072780251502991,1.5553339719772339,21.415761947631836,-0.046424999833106995,-0.00977300014346838,1.475849986076355,191.47225952148438,148.2067413330078,31.567041397094727,-10.151260375976562,0.5363616943359375,-1.689352035522461,-0.04886427894234657,-0.9964151978492737,-0.0690513402223587,0.9924617409706116,-0.040659401565790176,-0.11560913920402527,0.11238697171211243,-0.07418020814657211,0.990890622138977,0.19058308005332947
711592,17.989999771118164,97.38700103759766,-0.4067789912223816,1.4117649793624878,20.659629821777344,-0.06108599901199341,-0.007329999934881926,1.4856230020523071,192.99154663085938,148.6923370361328,31.249601364135742,-10.58996295928955,0.3416748046875,-0.7561511993408203,-0.06361476331949234,-0.9955403208732605,-0.06965401023626328,0.9917340278625488,-0.055270761251449585,-0.11579141765832901,0.11142503470182419,-0.07644452899694443,0.990827202796936,0.2119637429714203
711602,17.989999771118164,97.36299896240234,0.18663999438285828,1.473978042602539,19.472789764404297,-0.03665100038051605,-0.012217000126838684,1.4905099868774414,194.5670928955078,149.4199676513672,31.103092193603516,-11.630288124084473,0.8347320556640625,-1.1868476867675781,-0.07840289920568466,-0.9944601655006409,-0.07000719755887985,0.9907808303833008,-0.06994632631540298,-0.11601570248603821,0.11047607660293579,-0.07845798879861832,0.9907761216163635,0.2440011352300644
711612,17.989999771118164,97.34500122070312,-0.3589229881763458,2.416749954223633,18.630516052246094,-0.019547000527381897,0.0,1.50028395652771,196.14263916015625,150.11141967773438,31.202472686767578,-12.571948051452637,0.7649383544921875,-0.8422889709472656,-0.09326201677322388,-0.9931633472442627,-0.0701974481344223,0.9896156191825867,-0.08472274243831635,-0.11611101031303406,0.10936971008777618,-0.08029747009277344,0.9907515048980713,0.2744455933570862
711622,17.989999771118164,97.3239974975586,0.12921200692653656,2.24446702003479,16.816757202148438,-0.046424999833106995,0.012217000126838684,1.5076149702072144,197.74415588378906,150.89471435546875,30.591949462890625,-13.775171279907227,0.9476165771484375,-1.8137664794921875,-0.10816407203674316,-0.9916177988052368,-0.07066525518894196,0.9882369041442871,-0.09952142834663391,-0.11611308157444,0.10810693353414536,-0.08239349722862244,0.9907180070877075,0.30893388390541077
711632,17.989999771118164,97.31600189208984,-0.4977070093154907,1.4261219501495361,16.146766662597656,-0.019547000527381897,0.017103999853134155,1.524718999862671,199.2557373046875,151.20594787597656,29.966421127319336,-13.819646835327148,0.0106658935546875,-0.6700115203857422,-0.1232072040438652,-0.9898464679718018,-0.07087226957082748,0.9866218566894531,-0.11449775844812393,-0.11604516208171844,0.10675200819969177,-0.08422195166349411,0.9907112121582031,0.3226374089717865
711642,17.989999771118164,97.27999877929688,1.2777669429779053,1.9190430641174316,14.93599796295166,-0.021990999579429626,0.03176400065422058,1.5222749710083008,200.92803955078125,152.26255798339844,30.6071720123291,-15.671160697937012,1.52203369140625,-1.2107763290405273,-0.13818711042404175,-0.9878485202789307,-0.07112358510494232,0.9847996830940247,-0.12942108511924744,-0.11583882570266724,0.10522615164518356,-0.08605015277862549,0.990717351436615,0.3691596984863281
