timestamp_ms,temp_c,pressure_kpa,accel_x_m_s2,accel_y_m_s2,accel_z_m_s2,gyro_x_dps,gyro_y_dps,gyro_z_dps,e_alt_m,e_vel_m_s,e_acc_m_s2,e_bias,innovation0,innovation1,r1c1,r1c2,r1c3,r2c1,r2c2,r2c3,r3c1,r3c2,r3c3,effort
1793955, 8.289999961853027, 99.96399688720703, -1.8855440616607666, -0.062212999910116196, -2.254038095474243, 0.5473350286483765, 0.18814599514007568, 0.07330299913883209, 0.6124294400215149, 4.017973899841309, -9.530611038208008, 8.153326034545898, 0.0, 0.0, 1.0, 0.0, 0.0, 0.0, 1.0, 0.0, 0.0, 0.0, 1.0, 0.0
1793965, 8.300000190734863, 99.9469985961914, -1.2681950330734253, 1.8568300008773804, 5.139781951904297, 0.5571079850196838, -0.048868998885154724, 0.007329999934881926, 0.2865593731403351, -0.7656385898590088, -9.87412166595459, 10.290353775024414, 0.0, 0.0, 1.0, 0.0, 0.0, 0.0, 1.0, 0.0, 0.0, 0.0, 1.0, 0.0
1793975, 8.289999961853027, 99.93599700927734, 0.5359920263290405, -4.809573173522949, -2.9623141288757324, 0.6841679811477661, 0.3591879904270172, 0.012217000126838684, 0.29206499457359314, -0.6892515420913696, -13.182347297668457, 10.160469055175781, 0.0, 0.0, 1.0, 0.0, 0.0, 0.0, 1.0, 0.0, 0.0, 0.0, 1.0, 0.0
1793985, 8.300000190734863, 99.93499755859375, -0.6412760019302368, -2.134397029876709, -0.8087739944458008, 0.796567976474762, 0.6890550255775452, 0.026877999305725098, 0.44190531969070435, 1.1974029541015625, -11.230298042297363, 9.267598152160645, 0.0, 0.0, 1.0, 0.0, 0.0, 0.0, 1.0, 0.0, 0.0, 0.0, 1.0, 0.0
1793995, 8.289999961853027, 99.93800354003906, 4.043869972229004, 5.0009989738464355, -0.19621099531650543, 0.7476980090141296, 0.796567976474762, -0.06841599941253662, 0.4660692811012268, 1.2486311197280884, -2.9224233627319336, 9.318099021911621, 0.0, 0.0, 1.0, 0.0, 0.0, 0.0, 1.0, 0.0, 0.0, 0.0, 1.0, 0.0
1794005, 8.300000190734863, 99.94100189208984, 2.7134599685668945, 5.771488189697266, 0.2057819962501526, 0.6133080124855042, 0.7403680086135864, -0.1954759955406189, 0.3893609642982483, 0.07740128040313721, -3.8265180587768555, 9.82628345489502, 0.0, 0.0, 1.0, 0.0, 0.0, 0.0, 1.0, 0.0, 0.0, 0.0, 1.0, 0.0
1794015, 8.289999961853027, 99.93900299072266, 3.905086040496826, 4.259223937988281, -1.239482045173645, 0.6255249977111816, 0.6181949973106384, -0.1221729964017868, 0.6183782815933228, 2.968703508377075, -2.7311623096466064, 8.504199981689453, 0.0, 0.0, 1.0, 0.0, 0.0, 0.0, 1.0, 0.0, 0.0, 0.0, 1.0, 0.0
1794025, 8.279999732971191, 99.93699645996094, 3.1920249462127686, 5.063211917877197, -1.1437690258026123, 0.6304119825363159, 0.5228999853134155, -0.0048859999515116215, 0.7191116809844971, 3.8542792797088623, -2.2568957805633545, 8.094226837158203, 0.0, 0.0, 1.0, 0.0, 0.0, 0.0, 1.0, 0.0, 0.0, 0.0, 1.0, 0.0
1794035, 8.300000190734863, 99.94100189208984, 3.6801609992980957, 6.881756782531738, -0.7274180054664612, 0.47647398710250854, 0.40316998958587646, -0.024434000253677368, 0.6074088215827942, 1.9063265323638916, -1.516738772392273, 8.985139846801758, 0.0, 0.0, 1.0, 0.0, 0.0, 0.0, 1.0, 0.0, 0.0, 0.0, 1.0, 0.0
1794045, 8.289999961853027, 99.94300079345703, 3.0819549560546875, 6.695116996765137, -1.0289130210876465, 0.26633700728416443, 0.31520599126815796, -0.053755998611450195, 0.3651440441608429, -1.45927894115448, -3.5716333389282227, 10.485066413879395, 0.0, 0.0, 1.0, 0.0, 0.0, 0.0, 1.0, 0.0, 0.0, 0.0, 1.0, 0.0
1794055, 8.289999961853027, 99.94400024414062, 3.005384922027588, 6.360122203826904, -1.698904037475586, 0.03420799970626831, 0.08307699859142303, -0.04153800010681152, 0.09804248809814453, -4.731012344360352, -5.314995765686035, 11.937407493591309, 0.0, 0.0, 1.0, 0.0, 0.0, 0.0, 1.0, 0.0, 0.0, 0.0, 1.0, 0.0
1794065, 8.300000190734863, 99.947998046875, 3.1776680946350098, 6.790830135345459, 0.6269189715385437, -0.3103190064430237, -0.2296849936246872, 0.012217000126838684, -0.258017897605896, -8.74033260345459, -6.675777912139893, 13.724571228027344, 0.0, 0.0, 1.0, 0.0, 0.0, 0.0, 1.0, 0.0, 0.0, 0.0, 1.0, 0.0
1794075, 8.289999961853027, 99.94000244140625, 1.62233304977417, 5.761916160583496, 2.148754119873047, -0.4593699872493744, -0.2638930082321167, -0.021990999579429626, -0.1926148384809494, -6.8431396484375, -7.591925621032715, 12.813383102416992, 0.0, 0.0, 1.0, 0.0, 0.0, 0.0, 1.0, 0.0, 0.0, 0.0, 1.0, 0.0
1794085, 8.300000190734863, 99.9469985961914, 2.5698909759521484, 3.5557339191436768, -0.31106600165367126, -0.5204570293426514, -0.43737900257110596, 0.007329999934881926, -0.23356643319129944, -6.561775207519531, -8.307868957519531, 12.639339447021484, 0.0, 0.0, 1.0, 0.0, 0.0, 0.0, 1.0, 0.0, 0.0, 0.0, 1.0, 0.0
1794095, 8.289999961853027, 99.94599914550781, 2.8139591217041016, 3.8859429359436035, -0.39720800518989563, -0.47158700227737427, -0.6010910272598267, 0.06108599901199341, -0.23590725660324097, -5.828030109405518, -7.5401387214660645, 12.27768325805664, 0.0, 0.0, 1.0, 0.0, 0.0, 0.0, 1.0, 0.0, 0.0, 0.0, 1.0, 0.0
1794105, 8.279999732971191, 99.94499969482422, 34.08815002441406, 26.40240478515625, -13.859228134155273, -0.5009089708328247, -0.6548470258712769, 0.053755998611450195, -0.2067553550004959, -4.777318954467773, 30.437644958496094, 12.335564613342285, 0.0, 0.0, 1.0, 0.0, 0.0, 0.0, 1.0, 0.0, 0.0, 0.0, 1.0, 0.0
1794115, 8.300000190734863, 99.91400146484375, 8.27437973022461, 25.823341369628906, 12.040682792663574, -1.043357014656067, -0.7574719786643982, -0.10751199722290039, 0.5956066846847534, 6.410127639770508, 16.951236724853516, 7.159537315368652, 0.0, 0.0, 1.0, 0.0, 0.0, 0.0, 1.0, 0.0, 0.0, 0.0, 1.0, 0.0
1794125, 8.300000190734863, 99.95700073242188, 17.443675994873047, 13.950155258178711, -5.048854827880859, -0.8747580051422119, -0.5742130279541016, 0.2712239921092987, -0.045218050479888916, -2.4715771675109863, 10.99332046508789, 11.205465316772461, 0.0, 0.0, 1.0, 0.0, 0.0, 0.0, 1.0, 0.0, 0.0, 0.0, 1.0, 0.0
1794135, 8.289999961853027, 99.93900299072266, -0.6221330165863037, 7.0923261642456055, 10.045068740844727, -0.9334009885787964, -0.3249799907207489, -0.06108599901199341, -0.02308303490281105, -1.7678539752960205, -6.101329803466797, 10.676484107971191, 0.0, 0.0, 1.0, 0.0, 0.0, 0.0, 1.0, 0.0, 0.0, 0.0, 1.0, 0.0
1794145, 8.289999961853027, 99.947998046875, 7.6618170738220215, 8.652445793151855, 4.445864200592041, -0.4129439890384674, -0.7476980090141296, 0.07330299913883209, -0.15109162032604218, -3.2398862838745117, 0.12092065811157227, 11.415000915527344, 0.0, 0.0, 1.0, 0.0, 0.0, 0.0, 1.0, 0.0, 0.0, 0.0, 1.0, 0.0
1794155, 8.300000190734863, 99.94200134277344, 9.394221305847168, 5.958127975463867, -2.134397029876709, -0.4129439890384674, -0.45692700147628784, 0.024434000253677368, 0.08430567383766174, 0.19560599327087402, 0.9967562556266785, 9.858991622924805, 0.0, 0.0, 1.0, 0.0, 0.0, 0.0, 1.0, 0.0, 0.0, 0.0, 1.0, 0.0
1794165, 8.300000190734863, 99.94599914550781, 5.355135917663574, 2.785244941711426, -1.9812569618225098, -0.2785539925098419, -0.051311999559402466, -0.021990999579429626, 0.11065343767404556, 0.5177465677261353, -3.886624574661255, 9.642745971679688, 0.0, 0.0, 1.0, 0.0, 0.0, 0.0, 1.0, 0.0, 0.0, 0.0, 1.0, 0.0
1794175, 8.289999961853027, 99.94999694824219, 0.7369890213012695, 7.039683818817139, 8.666803359985352, -0.05619899928569794, -0.03176400065422058, 0.021990999579429626, -0.03644359111785889, -1.4714769124984741, -5.017911911010742, 10.516861915588379, 0.0, 0.0, 1.0, 0.0, 0.0, 0.0, 1.0, 0.0, 0.0, 0.0, 1.0, 0.0
1794185, 8.289999961853027, 99.94400024414062, 10.743772506713867, 7.331607818603516, 0.8853440284729004, 0.1343899965286255, 0.058642998337745667, 0.0, 0.03844032809138298, -0.36937689781188965, 2.674905776977539, 10.106308937072754, 0.0, 0.0, 1.0, 0.0, 0.0, 0.0, 1.0, 0.0, 0.0, 0.0, 1.0, 0.0
1794195, 8.300000190734863, 100.0250015258789, 63.91229248046875, 65.9892578125, 1.0193419456481934, 0.15882399678230286, 0.22724099457263947, 0.007329999934881926, -1.7687649726867676, -23.473535537719727, 70.16154479980469, 21.692615509033203, 0.0, 0.0, 1.0, 0.0, 0.0, 0.0, 1.0, 0.0, 0.0, 0.0, 1.0, 0.0
1794205, 8.289999961853027, 99.93699645996094, 139.1186981201172, 128.1212921142578, -16.86939811706543, 0.35674500465393066, -0.750141978263855, 0.09285099804401398, -1.261735439300537, -13.304120063781738, 170.09425354003906, 18.872802734375, 0.0, 0.0, 1.0, 0.0, 0.0, 0.0, 1.0, 0.0, 0.0, 0.0, 1.0, 0.0
1794215, 8.289999961853027, 99.93399810791016, 128.60464477539062, 129.45648193359375, -7.3459649085998535, -1.2632689476013184, -0.2443459928035736, -0.19303299486637115, -0.7273283004760742, -3.1525344848632812, 167.5043182373047, 14.972452163696289, 0.0, 0.0, 1.0, 0.0, 0.0, 0.0, 1.0, 0.0, 0.0, 0.0, 1.0, 0.0
1794225, 8.300000190734863, 99.94400024414062, 121.97174072265625, 131.365966796875, 7.920241832733154, -0.7843499779701233, -0.5913169980049133, 0.04398199915885925, -0.4044952094554901, 2.9595823287963867, 166.2112579345703, 12.92555046081543, 0.0, 0.0, 1.0, 0.0, 0.0, 0.0, 1.0, 0.0, 0.0, 0.0, 1.0, 0.0
1794235, 8.289999961853027, 99.9209976196289, 137.11830139160156, 126.9296646118164, -5.465206146240234, -0.23212799429893494, -0.632856011390686, -0.007329999934881926, 0.2946382761001587, 13.101625442504883, 177.48922729492188, 9.220846176147461, 0.0, 0.0, 1.0, 0.0, 0.0, 0.0, 1.0, 0.0, 0.0, 0.0, 1.0, 0.0
1794245, 8.300000190734863, 99.91699981689453, 132.50494384765625, 127.25988006591797, -3.0675981044769287, -0.18570199608802795, 0.27611100673675537, -0.03665100038051605, 1.101478099822998, 23.429828643798828, 178.35577392578125, 5.32568359375, 0.0, 0.0, 1.0, 0.0, 0.0, 0.0, 1.0, 0.0, 0.0, 0.0, 1.0, 0.0
1794255, 8.300000190734863, 99.92900085449219, 124.36456298828125, 132.4092254638672, 7.283751010894775, -0.5962039828300476, -0.08063399791717529, 0.026877999305725098, 1.4282528162002563, 26.284988403320312, 176.7545928955078, 4.811907768249512, 0.0, 0.0, 1.0, 0.0, 0.0, 0.0, 1.0, 0.0, 0.0, 0.0, 1.0, 0.0
1794265, 8.300000190734863, 99.90799713134766, 134.0985565185547, 130.5141143798828, 2.196610927581787, -0.28099700808525085, -0.6181949973106384, 0.04153800010681152, 2.136392831802368, 33.64982986450195, 184.73477172851562, 2.3746445178985596, 0.0, 0.0, 1.0, 0.0, 0.0, 0.0, 1.0, 0.0, 0.0, 0.0, 1.0, 0.0
1794275, 8.289999961853027, 99.90699768066406, 135.0269775390625, 132.24172973632812, 2.1535398960113525, -0.28588399291038513, -0.18570199608802795, -0.06108599901199341, 2.614380121231079, 37.19325256347656, 187.34841918945312, 1.6390602588653564, 0.0, 0.0, 1.0, 0.0, 0.0, 0.0, 1.0, 0.0, 0.0, 0.0, 1.0, 0.0
1794285, 8.279999732971191, 99.90399932861328, 137.33843994140625, 130.44711303710938, -1.5122630596160889, -0.02932099997997284, -0.23457199335098267, -0.048868998885154724, 3.144852638244629, 40.97980499267578, 188.5696258544922, 0.7833383083343506, 0.0, 0.0, 1.0, 0.0, 0.0, 0.0, 1.0, 0.0, 0.0, 0.0, 1.0, 0.0
1794295, 8.289999961853027, 99.9000015258789, 137.07044982910156, 128.87742614746094, -1.6558330059051514, 0.0048859999515116215, 0.175928995013237, -0.04153800010681152, 3.4727816581726074, 41.69465255737305, 186.76243591308594, 1.2910895347595215, 0.0, 0.0, 1.0, 0.0, 0.0, 0.0, 1.0, 0.0, 0.0, 0.0, 1.0, 0.0
1794305, 8.289999961853027, 99.89800262451172, 138.20465087890625, 128.22178649902344, -4.18743896484375, 0.39583998918533325, 0.4862479865550995, -0.07818999886512756, 3.769625186920166, 41.902259826660156, 186.34852600097656, 2.043355941772461, 0.0, 0.0, 1.0, 0.0, 0.0, 0.0, 1.0, 0.0, 0.0, 0.0, 1.0, 0.0
1794315, 8.289999961853027, 99.8949966430664, 140.10455322265625, 127.71451568603516, -6.206981182098389, 0.7012730240821838, 0.7354810237884521, -0.1148419976234436, 4.038809776306152, 41.724647521972656, 186.39990234375, 2.9767582416534424, 0.0, 0.0, 1.0, 0.0, 0.0, 0.0, 1.0, 0.0, 0.0, 0.0, 1.0, 0.0
1794325, 8.289999961853027, 99.89099884033203, 139.8269805908203, 131.9163055419922, -2.249253034591675, 0.9529489874839783, 1.2461639642715454, -0.1954759955406189, 4.396514892578125, 42.705535888671875, 188.7360076904297, 3.415485143661499, 0.0, 0.0, 1.0, 0.0, 0.0, 0.0, 1.0, 0.0, 0.0, 0.0, 1.0, 0.0
1794335, 8.300000190734863, 99.89900207519531, 137.0130157470703, 133.1366424560547, 1.7898309230804443, 1.431867003440857, 1.8790209293365479, -0.16371099650859833, 4.316866397857666, 37.9736328125, 184.64630126953125, 6.378350257873535, 0.0, 0.0, 1.0, 0.0, 0.0, 0.0, 1.0, 0.0, 0.0, 0.0, 1.0, 0.0
1794345, 8.289999961853027, 99.89700317382812, 143.8086395263672, 133.8544921875, 0.29192399978637695, 2.0525059700012207, 2.1331400871276855, -0.05619899928569794, 4.275346755981445, 34.299278259277344, 187.39508056640625, 8.9423828125, 0.0, 0.0, 1.0, 0.0, 0.0, 0.0, 1.0, 0.0, 0.0, 0.0, 1.0, 0.0
1794355, 8.289999961853027, 99.89399719238281, 134.0028533935547, 130.13604736328125, 1.9956140518188477, 2.147800922393799, 1.558927059173584, -0.0024429999757558107, 4.240305423736572, 31.2049560546875, 175.73760986328125, 11.036802291870117, 0.0, 0.0, 1.0, 0.0, 0.0, 0.0, 1.0, 0.0, 0.0, 0.0, 1.0, 0.0
1794365, 8.300000190734863, 99.88800048828125, 138.28599548339844, 133.16058349609375, -0.8662009835243225, 1.265712022781372, 2.1746790409088135, -0.2956579923629761, 4.36126184463501, 30.398967742919922, 179.67430114746094, 12.26740550994873, 0.0, 0.0, 1.0, 0.0, 0.0, 0.0, 1.0, 0.0, 0.0, 0.0, 1.0, 0.0
1794375, 8.289999961853027, 99.88899993896484, 143.84213256835938, 140.38211059570312, -2.4741780757904053, 1.4978410005569458, 1.1972949504852295, -0.2028069943189621, 4.320704460144043, 27.661840438842773, 186.53443908691406, 14.442445755004883, 0.0, 0.0, 1.0, 0.0, 0.0, 0.0, 1.0, 0.0, 0.0, 0.0, 1.0, 0.0
1794385, 8.289999961853027, 99.87699890136719, 146.4598846435547, 143.9569854736328, -2.014755964279175, 0.9114099740982056, 1.4807369709014893, -0.1954759955406189, 4.804253578186035, 32.061363220214844, 191.98898315429688, 13.366731643676758, 0.0, 0.0, 1.0, 0.0, 0.0, 0.0, 1.0, 0.0, 0.0, 0.0, 1.0, 0.0
1794395, 8.300000190734863, 99.8759994506836, 149.47962951660156, 145.5027618408203, -3.148953914642334, 0.30054500699043274, 1.3707809448242188, -0.18814599514007568, 5.171236038208008, 34.45280075073242, 195.38162231445312, 13.202406883239746, 0.0, 0.0, 1.0, 0.0, 0.0, 0.0, 1.0, 0.0, 0.0, 0.0, 1.0, 0.0
1794405, 8.289999961853027, 99.87200164794922, 147.7089385986328, 144.73226928710938, -3.6562318801879883, -0.12950299680233002, 1.0995570421218872, -0.15149399638175964, 5.614570617675781, 37.54848098754883, 194.1254119873047, 12.661725044250488, 0.0, 0.0, 1.0, 0.0, 0.0, 0.0, 1.0, 0.0, 0.0, 0.0, 1.0, 0.0
1794415, 8.300000190734863, 99.86499786376953, 144.9954833984375, 141.81781005859375, -4.053441047668457, -1.356119990348816, 0.948062002658844, 0.024434000253677368, 6.224571228027344, 42.372806549072266, 191.5027618408203, 11.304845809936523, 0.0, 0.0, 1.0, 0.0, 0.0, 0.0, 1.0, 0.0, 0.0, 0.0, 1.0, 0.0
1794425, 8.289999961853027, 99.85600280761719, 144.21542358398438, 141.501953125, -4.73300313949585, -1.8008300065994263, 0.7745760083198547, 0.13927699625492096, 6.820412635803223, 46.372310638427734, 191.6776580810547, 10.355031967163086, 0.0, 0.0, 1.0, 0.0, 0.0, 0.0, 1.0, 0.0, 0.0, 0.0, 1.0, 0.0
1794435, 8.289999961853027, 99.84300231933594, 142.51651000976562, 140.0088348388672, -5.029713153839111, -2.230879068374634, 0.6230819821357727, 0.2638930082321167, 7.685914516448975, 53.31879806518555, 191.7181396484375, 8.057439804077148, 0.0, 0.0, 1.0, 0.0, 0.0, 0.0, 1.0, 0.0, 0.0, 0.0, 1.0, 0.0
1794445, 8.289999961853027, 99.84400177001953, 141.32489013671875, 138.8602752685547, -5.575275897979736, -2.631606101989746, 0.4544830024242401, 0.38362300395965576, 6.98675537109375, 39.30875778198242, 182.91845703125, 15.20235538482666, 0.0, 0.0, 1.0, 0.0, 0.0, 0.0, 1.0, 0.0, 0.0, 0.0, 1.0, 0.0
1794455, 8.300000190734863, 99.83200073242188, 140.4299774169922, 137.98451232910156, -6.647261142730713, -2.9223780632019043, 0.3323099911212921, 0.4935790002346039, 8.374597549438477, 53.77792739868164, 187.37474060058594, 9.493995666503906, -4.166189193725586, -1.6547698974609375, 0.9999826550483704, -0.00498567521572113, 0.0031353540252894163, 0.004891751334071159, 0.9995591640472412, 0.02928403951227665, -0.0032799651380628347, -0.02926819585263729, 0.9995662569999695, 0.0
1794465, 8.300000190734863, 99.81999969482422, 139.73126220703125, 137.74522399902344, -7.968099117279053, -3.2375850677490234, 0.13927699625492096, 0.6035339832305908, 9.736896514892578, 66.10560607910156, 191.42706298828125, 4.778408527374268, 3.306324005126953, -1.2520751953125, 0.9999293088912964, -0.011143134906888008, 0.004151642322540283, 0.010865905322134495, 0.9980362057685852, 0.061690595000982285, -0.004830918274819851, -0.06164112314581871, 0.99808669090271, 0.0
1794475, 8.289999961853027, 99.80999755859375, 139.25270080566406, 137.8983612060547, -8.49930477142334, -3.540574073791504, -0.11239899694919586, 0.7257069945335388, 11.027793884277344, 75.97454833984375, 194.78111267089844, 1.1942710876464844, 2.7345046997070312, -0.66326904296875, 0.999825656414032, -0.01851971261203289, 0.00238669291138649, 0.018200892955064774, 0.9951163530349731, 0.09701746702194214, -0.004171768203377724, -0.09695710986852646, 0.9952797889709473, 0.0
1794485, 8.300000190734863, 99.7959976196289, 137.80743408203125, 137.55380249023438, -10.98784065246582, -4.080577850341797, -0.8283330202102661, 0.9431750178337097, 12.340954780578613, 84.89476013183594, 196.6728515625, -1.963078260421753, 2.0807571411132812, -0.2300872802734375, 0.9995875954627991, -0.027860375121235847, -0.006958164740353823, 0.02855246514081955, 0.9901058673858643, 0.13738784193992615, 0.0030616442672908306, -0.13752985000610352, 0.9904928803443909, 0.0
1794495, 8.289999961853027, 99.7770004272461, 137.08001708984375, 137.654296875, -12.476177215576172, -4.300489902496338, -1.1484260559082031, 1.028696060180664, 13.78296947479248, 94.3411865234375, 199.60304260253906, -5.336575508117676, 1.8238153457641602, -1.2656097412109375, 0.9990947246551514, -0.03756631910800934, -0.019960705190896988, 0.04054410383105278, 0.9829267859458923, 0.17947541177272797, 0.01287767756730318, -0.18012221157550812, 0.9835599064826965, 0.0
1794505, 8.289999961853027, 99.76699829101562, 137.8648681640625, 138.48220825195312, -14.548360824584961, -4.593705177307129, -1.620013952255249, 1.0775660276412964, 15.101405143737793, 101.01873779296875, 202.83384704589844, -7.426982879638672, 1.9565143585205078, -0.4433135986328125, 0.9981643557548523, -0.046995263546705246, -0.03820189833641052, 0.05437840521335602, 0.9731414914131165, 0.22369374334812164, 0.026663295924663544, -0.2253604233264923, 0.9739105105400085, 0.0
1794515, 8.289999961853027, 99.75399780273438, 136.3478240966797, 138.25729370117188, -14.883356094360352, -4.732982158660889, -2.042732000350952, 1.062904953956604, 16.390531539916992, 106.49425506591797, 203.17210388183594, -8.996990203857422, 1.2245759963989258, 1.1403961181640625, 0.996600329875946, -0.055248841643333435, -0.06111820787191391, 0.0697164312005043, 0.960823118686676, 0.2682513892650604, 0.04390320926904678, -0.27160030603408813, 0.961408257484436, 0.0
1794525, 8.289999961853027, 99.75199890136719, 134.92648315429688, 138.63536071777344, -15.845271110534668, -4.8502678871154785, -2.5314249992370605, 1.062904953956604, 17.387380599975586, 107.52241516113281, 201.99359130859375, -8.556200981140137, 0.901702880859375, -1.23175048828125, 0.9940630197525024, -0.06218193098902702, -0.08928720653057098, 0.0872425064444542, 0.9458828568458557, 0.3125614523887634, 0.06501957774162292, -0.31849533319473267, 0.9456919431686401, 0.0
1794535, 8.300000190734863, 99.74700164794922, 134.24691772460938, 139.3531951904297, -16.74018669128418, -5.077509880065918, -3.0372209548950195, 1.0262529850006104, 18.207195281982422, 106.13733673095703, 200.48751831054688, -7.023063659667969, -0.2625083923339844, -0.7377166748046875, 0.9901655316352844, -0.06697754561901093, -0.12282678484916687, 0.10707667469978333, 0.9278564453125, 0.3572355806827545, 0.09003888070583344, -0.3668741285800934, 0.9259030818939209, 0.0
1794545, 8.3100004196167, 99.73200225830078, 134.71591186523438, 140.87982177734375, -16.984254837036133, -5.253438949584961, -4.017047882080078, 0.8136720061302185, 19.136157989501953, 106.3155517578125, 201.05543518066406, -6.179855823516846, -0.8906726837158203, 0.027069091796875, 0.983795702457428, -0.06741364300251007, -0.1661377102136612, 0.1298205703496933, 0.9069533944129944, 0.4007273018360138, 0.12366471439599991, -0.4158017337322235, 0.9010084271430969, 0.0
1794555, 8.300000190734863, 99.72699737548828, 132.03594970703125, 140.14283752441406, -18.57787322998047, -5.507558822631836, -4.469089031219482, 0.6548470258712769, 19.912900924682617, 104.52406311035156, 196.96372985839844, -4.504282474517822, -0.4778118133544922, 1.4111328125, 0.974855363368988, -0.06335952877998352, -0.21364229917526245, 0.15461203455924988, 0.8827334642410278, 0.4437081813812256, 0.16047611832618713, -0.46558278799057007, 0.8703334927558899, 0.0
1794565, 8.289999961853027, 99.7239990234375, 131.56695556640625, 141.056884765625, -18.793228149414062, -5.583307266235352, -4.867372989654541, 0.47647398710250854, 20.51524543762207, 100.68748474121094, 194.66014099121094, -1.8859972953796387, -0.9945240020751953, -2.4161376953125, 0.9629111289978027, -0.05462136119604111, -0.2642331123352051, 0.18140356242656708, 0.8559920191764832, 0.48411843180656433, 0.1997382789850235, -0.5140956044197083, 0.8341526985168457, 0.0
1794575, 8.289999961853027, 99.71099853515625, 130.48062133789062, 140.9228973388672, -18.113666534423828, -5.671270847320557, -5.299864768981934, 0.27366700768470764, 21.226587295532227, 98.71920776367188, 192.0478057861328, -0.136566162109375, -1.5187702178955078, 0.314697265625, 0.947318434715271, -0.04071378707885742, -0.3176957368850708, 0.21043004095554352, 0.8268962502479553, 0.5214996933937073, 0.24146923422813416, -0.5608787536621094, 0.7919014692306519, 0.0
1794585, 8.289999961853027, 99.70700073242188, 129.43255615234375, 141.10952758789062, -17.55853271484375, -5.727470874786377, -5.7176971435546875, 0.03420799970626831, 21.80512809753418, 95.27579498291016, 189.033203125, 2.268893003463745, -1.0240402221679688, -0.8628997802734375, 0.9275052547454834, -0.02122197486460209, -0.3732077181339264, 0.24156758189201355, 0.7959399819374084, 0.5550898909568787, 0.2852708697319031, -0.6050034165382385, 0.7433650493621826, 0.0
1794595, 8.289999961853027, 99.6989974975586, 130.12168884277344, 140.80325317382812, -16.161123275756836, -5.8960700035095215, -6.101319789886475, -0.24678899347782135, 22.388381958007812, 92.30619812011719, 187.11227416992188, 4.460564136505127, -1.4030685424804688, -0.6091461181640625, 0.9029714465141296, 0.004741042852401733, -0.42967489361763, 0.2745227515697479, 0.7629035711288452, 0.5853337049484253, 0.3305756449699402, -0.6464948654174805, 0.687578558921814, 0.0
1794605, 8.3100004196167, 99.68699645996094, 129.7340545654297, 140.39646911621094, -15.022139549255371, -5.998694896697998, -6.404308795928955, -0.5473350286483765, 23.06098175048828, 90.84529876708984, 185.05899047851562, 5.952102184295654, -1.2712440490722656, 0.2707366943359375, 0.8734819889068604, 0.03709375485777855, -0.48544183373451233, 0.3088565170764923, 0.7285483479499817, 0.6114124059677124, 0.37634748220443726, -0.6839892864227295, 0.6249170899391174, 0.0
1794615, 8.289999961853027, 99.6780014038086, 128.98748779296875, 139.25270080566406, -13.227522850036621, -6.531369209289551, -6.890558242797852, -1.0604610443115234, 23.743999481201172, 89.68614196777344, 182.3873748779297, 7.2870659828186035, -0.8715801239013672, -0.5617523193359375, 0.8374225497245789, 0.07973481714725494, -0.5407091975212097, 0.34438222646713257, 0.6912335753440857, 0.6352930068969727, 0.4244113862514496, -0.718218982219696, 0.5513951778411865, 0.0
1794625, 8.300000190734863, 99.66500091552734, 128.599853515625, 137.26666259765625, -12.107682228088379, -6.946757793426514, -7.0689311027526855, -1.2534949779510498, 24.527254104614258, 89.93610382080078, 180.02537536621094, 7.970625877380371, -0.7872810363769531, -1.3366546630859375, 0.7960019707679749, 0.1293620467185974, -0.5913094282150269, 0.38172799348831177, 0.650852382183075, 0.6562583446502686, 0.46975013613700867, -0.7481020092964172, 0.46869856119155884, 0.0
1794635, 8.300000190734863, 99.66000366210938, 129.64791870117188, 136.1611785888672, -12.356534957885742, -7.391467094421387, -7.257077217102051, -1.4001020193099976, 25.196300506591797, 88.66726684570312, 178.6038360595703, 9.351545333862305, -0.4116992950439453, -1.678436279296875, 0.74915611743927, 0.18561500310897827, -0.6358559131622314, 0.42129072546958923, 0.6072461009025574, 0.6736218333244324, 0.5111554265022278, -0.7725277543067932, 0.3767241835594177, 0.0
1794645, 8.300000190734863, 99.65299987792969, 129.84890747070312, 134.57713317871094, -12.356534957885742, -7.911923885345459, -7.476987838745117, -1.551596999168396, 25.823467254638672, 87.01073455810547, 176.09072875976562, 10.886666297912598, -0.8028030395507812, -0.040618896484375, 0.6967338919639587, 0.2487017810344696, -0.6728371977806091, 0.46321314573287964, 0.5602052807807922, 0.686734139919281, 0.5477189421653748, -0.7901376485824585, 0.2751120328903198, 0.0
1794655, 8.289999961853027, 99.65799713134766, 131.1697540283203, 132.65330505371094, -12.854243278503418, -8.366408348083496, -7.765316963195801, -1.617569923400879, 26.139009475708008, 81.54669189453125, 172.41847229003906, 14.132579803466797, -0.9004974365234375, -0.9779815673828125, 0.6386697888374329, 0.3170897662639618, -0.701110303401947, 0.5082874894142151, 0.5102167725563049, 0.6937743425369263, 0.5777069330215454, -0.7994579076766968, 0.16468724608421326, 0.0
1794665, 8.300000190734863, 99.66699981689453, 131.90194702148438, 131.10752868652344, -13.275379180908203, -8.82577896118164, -7.9388017654418945, -1.6151270866394043, 26.099597930908203, 72.19690704345703, 166.8668670654297, 19.108877182006836, -1.8898792266845703, -0.4263458251953125, 0.5764683485031128, 0.3896615207195282, -0.7182261943817139, 0.5557059645652771, 0.45745450258255005, 0.6942092180252075, 0.599062442779541, -0.7993117570877075, 0.047170788049697876, 0.0
1794675, 8.300000190734863, 99.6719970703125, 132.45230102539062, 129.60484313964844, -13.52901840209961, -9.194741249084473, -8.136722564697266, -1.524718999862671, 25.888505935668945, 61.79249954223633, 160.76890563964844, 24.533458709716797, -2.8966903686523438, -0.5753021240234375, 0.5111481547355652, 0.46435773372650146, -0.7232567071914673, 0.6054636240005493, 0.40272101759910583, 0.686461865901947, 0.6100345253944397, -0.7887888550758362, -0.07530158758163452, 0.0
1794685, 8.289999961853027, 99.68399810791016, 132.81121826171875, 126.66645812988281, -15.51984691619873, -9.881354331970215, -8.581433296203613, -1.2119560241699219, 25.379478454589844, 48.844459533691406, 152.41989135742188, 31.058496475219727, -3.1580352783203125, -0.6733856201171875, 0.44318369030952454, 0.5413272380828857, -0.7145304679870605, 0.6592578887939453, 0.34329062700271606, 0.6689774990081787, 0.6074272394180298, -0.7675392627716064, -0.20473337173461914, 0.0
1794695, 8.289999961853027, 99.69000244140625, 134.34263610839844, 125.82897186279297, -17.960525512695312, -10.128143310546875, -8.837995529174805, -0.9993749856948853, 24.77730941772461, 36.2843017578125, 146.56332397460938, 37.405723571777344, -3.8074378967285156, -1.823974609375, 0.3750591576099396, 0.6167975664138794, -0.6920204162597656, 0.7141251564025879, 0.28373903036117554, 0.6399357318878174, 0.5910638570785522, -0.7342024445533752, -0.33405157923698425, 0.0
1794705, 8.300000190734863, 99.71199798583984, 134.0028533935547, 124.64212799072266, -19.755142211914062, -10.343168258666992, -9.087228775024414, -0.7428110241889954, 23.74460792541504, 19.75874900817871, 137.40130615234375, 45.48825454711914, -3.6841392517089844, 0.49066162109375, 0.30880242586135864, 0.6891773343086243, -0.6554971933364868, 0.7686748504638672, 0.22505611181259155, 0.5987395644187927, 0.5601612329483032, -0.6887559294700623, -0.46025514602661133, 0.0
1794715, 8.289999961853027, 99.73200225830078, 134.32827758789062, 125.78589630126953, -20.41556167602539, -10.494662284851074, -9.346236228942871, -0.49846500158309937, 22.414371490478516, 1.4510154724121094, 129.56521606445312, 54.36323165893555, -4.706073760986328, -1.0794830322265625, 0.2460990995168686, 0.7568733096122742, -0.6054576635360718, 0.8212919235229492, 0.16887807846069336, 0.5449405312538147, 0.5146993398666382, -0.6313663721084595, -0.5800528526306152, 0.0
1794725, 8.289999961853027, 99.72799682617188, 131.6818084716797, 124.89098358154297, -22.047466278076172, -10.538643836975098, -9.83004093170166, -0.30787599086761475, 21.450876235961914, -9.878877639770508, 121.41498565673828, 60.009315490722656, -5.148284912109375, 1.0388946533203125, 0.18703126907348633, 0.8182270526885986, -0.5436219573020935, 0.8712077140808105, 0.11753208935260773, 0.47663798928260803, 0.45389100909233093, -0.562753438949585, -0.6908630132675171, 0.0
1794735, 8.289999961853027, 99.75599670410156, 129.8106231689453, 125.53704071044922, -23.44009017944336, -10.712129592895508, -10.059725761413574, -0.15882399678230286, 20.019407272338867, -25.833581924438477, 112.83318328857422, 67.72484588623047, -3.3025474548339844, -2.504150390625, 0.1346021443605423, 0.8728490471839905, -0.4690606892108917, 0.9151146411895752, 0.07206397503614426, 0.3967018723487854, 0.38006314635276794, -0.4826408922672272, -0.7890564203262329, 0.0
1794745, 8.279999732971191, 99.75, 127.98729705810547, 126.47502899169922, -24.143579483032227, -10.71701717376709, -10.56796646118164, -0.1343899965286255, 19.04326820373535, -33.98310852050781, 108.04010772705078, 71.89189147949219, -4.490970611572266, -0.86627197265625, 0.08815596997737885, 0.9188543558120728, -0.3846248984336853, 0.9521528482437134, 0.035704657435417175, 0.3035300076007843, 0.2926327884197235, -0.39297938346862793, -0.8717416524887085, 0.0
1794755, 8.289999961853027, 99.73899841308594, 126.87702178955078, 126.66645812988281, -20.72662925720215, -10.988241195678711, -11.437837600708008, -0.3469710052013397, 18.567401885986328, -34.71657180786133, 106.58352661132812, 72.69873809814453, -2.426870346069336, -0.62603759765625, 0.046252887696027756, 0.956197202205658, -0.2890477776527405, 0.9806845188140869, 0.011585734784603119, 0.19525350630283356, 0.19004976749420166, -0.2924954891204834, -0.9371914267539978, 0.0
1794765, 8.289999961853027, 99.73799896240234, 127.3508071899414, 125.89596557617188, -18.807584762573242, -11.235031127929688, -11.77503490447998, -0.5253430008888245, 18.25730323791504, -33.24372100830078, 106.56006622314453, 72.51240539550781, -0.47446441650390625, -0.6497344970703125, 0.013251103460788727, 0.9829621315002441, -0.1833329051733017, 0.9968595504760742, 0.0013297051191329956, 0.07918050140142441, 0.0780753567814827, -0.18380621075630188, -0.9798570871353149, 0.0
1794775, 8.289999961853027, 99.72899627685547, 127.25988006591797, 125.40304565429688, -18.128023147583008, -11.55756664276123, -12.031599044799805, -0.6206380128860474, 18.259580612182617, -27.953876495361328, 108.05485534667969, 70.60477447509766, 0.10646629333496094, -0.2097930908203125, -0.008127412758767605, 0.9975932836532593, -0.06886690855026245, 0.9991490244865417, 0.005316387861967087, -0.040905311703681946, -0.04044054448604584, -0.06914063543081284, -0.9967871308326721, 0.0
1794785, 8.279999732971191, 99.71800231933594, 127.58051300048828, 124.92926788330078, -17.582460403442383, -11.865443229675293, -12.278388023376465, -0.6939420104026794, 18.570842742919922, -19.365875244140625, 111.32757568359375, 67.22376251220703, 1.1049633026123047, -0.412841796875, -0.016142677515745163, 0.9985482096672058, 0.05139980465173721, 0.9865801930427551, 0.024260692298412323, -0.1614656150341034, -0.16247795522212982, 0.04810361564159393, -0.9855391383171082, 0.0
1794795, 8.289999961853027, 99.7300033569336, 128.68121337890625, 123.86685180664062, -16.62054443359375, -12.183093070983887, -12.483638763427734, -0.755029022693634, 18.55510711669922, -16.042203903198242, 112.34925842285156, 66.22917938232422, 1.9637737274169922, -0.1082916259765625, -0.009515860117971897, 0.9846683144569397, 0.17418010532855988, 0.9587253332138062, 0.05848625302314758, -0.2782542109489441, -0.28417497873306274, 0.16434307396411896, -0.9445827007293701, 0.0
1794805, 8.289999961853027, 99.71700286865234, 125.99168395996094, 122.48380279541016, -16.663616180419922, -12.559386253356934, -12.608255386352539, -0.7183769941329956, 18.886486053466797, -8.683647155761719, 112.31891632080078, 63.379764556884766, 0.5781879425048828, 0.027099609375, 0.01325676403939724, 0.9550558924674988, 0.2961307466030121, 0.9160768389701843, 0.10710494965314865, -0.3864351212978363, -0.400783896446228, 0.2764014005661011, -0.8734844326972961, 0.0
1794815, 8.289999961853027, 99.7229995727539, 125.89118194580078, 120.9476089477539, -16.266408920288086, -13.00898265838623, -12.791515350341797, -0.6963859796524048, 19.01702308654785, -4.844773769378662, 112.4012222290039, 62.140140533447266, 1.6309471130371094, -2.8797607421875, 0.05230925232172012, 0.9089739322662354, 0.41355884075164795, 0.8593409657478333, 0.16999156773090363, -0.48232388496398926, -0.5087210536003113, 0.38061800599098206, -0.7722262144088745, 0.0
1794825, 8.289999961853027, 99.73300170898438, 125.15419006347656, 117.94701385498047, -16.15633773803711, -13.64672565460205, -13.099390983581543, -0.535116970539093, 18.893390655517578, -4.75705623626709, 109.33110809326172, 62.56737518310547, 0.7103595733642578, -1.157318115234375, 0.10918760299682617, 0.8452807068824768, 0.5230482816696167, 0.7895429134368896, 0.24593289196491241, -0.5622626543045044, -0.6039042472839355, 0.4743610620498657, -0.640532374382019, 0.0
1794835, 8.300000190734863, 99.73300170898438, 123.88599395751953, 119.2343521118164, -14.266008377075195, -13.98392391204834, -13.267990112304688, -0.31520599126815796, 18.807119369506836, -4.230160236358643, 109.0894775390625, 62.82254409790039, -0.2710704803466797, -2.64288330078125, 0.18255269527435303, 0.7657731175422668, 0.6166579127311707, 0.7097800970077515, 0.33136820793151855, -0.6216170191764832, -0.6803580522537231, 0.551169216632843, -0.4830382168292999, 0.0
1794845, 8.289999961853027, 99.71900177001953, 123.3021469116211, 118.45907592773438, -12.777671813964844, -14.264922142028809, -13.688264846801758, -0.18814599514007568, 19.089111328125, 0.9496722221374512, 109.98331451416016, 60.96767807006836, -0.1481609344482422, 0.0135345458984375, 0.2708904445171356, 0.6727701425552368, 0.6884763240814209, 0.6210616230964661, 0.42429545521736145, -0.658981204032898, -0.7354598641395569, 0.6060977578163147, -0.30289408564567566, 0.0
1794855, 8.289999961853027, 99.7040023803711, 122.3115234375, 118.62657165527344, -13.88794231414795, -14.734066009521484, -13.869081497192383, -0.06841599941253662, 19.686737060546875, 9.521452903747559, 112.77332305908203, 57.59560775756836, 1.069570541381836, -0.961029052734375, 0.36964109539985657, 0.5676761269569397, 0.7356019020080566, 0.5282580852508545, 0.52289217710495, -0.6689749956130981, -0.7644012570381165, 0.6358681917190552, -0.10659712553024292, 0.0
1794865, 8.289999961853027, 99.70099639892578, 121.33045959472656, 118.97592163085938, -14.634503364562988, -15.110359191894531, -14.14519214630127, 0.06841599941253662, 20.243328094482422, 16.493806838989258, 114.96417236328125, 54.95807647705078, 1.9544868469238281, -0.582061767578125, 0.4757460951805115, 0.4544657766819, 0.7530786395072937, 0.4349207878112793, 0.622644305229187, -0.6505062580108643, -0.7645326256752014, 0.6370052099227905, 0.09856381267309189, 0.0
1794875, 8.279999732971191, 99.68199920654297, 120.55519104003906, 118.63614654541016, -16.194622039794922, -15.449999809265137, -14.411528587341309, 0.1343899965286255, 21.13947868347168, 26.947189331054688, 118.37541961669922, 50.75837707519531, 1.5288162231445312, -0.446685791015625, 0.5842015147209167, 0.3381028175354004, 0.7378319501876831, 0.34510254859924316, 0.7193382978439331, -0.6028740406036377, -0.734583854675293, 0.6068274974822998, 0.3035581409931183, 0.0
1794885, 8.300000190734863, 99.67400360107422, 123.5318603515625, 120.6700439453125, -17.419748306274414, -15.72611141204834, -14.729179382324219, 0.16371099650859833, 22.03644371032715, 36.10234069824219, 125.45405578613281, 47.222740173339844, 2.4336414337158203, -0.7884521484375, 0.690159797668457, 0.2244652509689331, 0.687964916229248, 0.26274341344833374, 0.8080768585205078, -0.5272363424301147, -0.6742745041847229, 0.544635534286499, 0.49872511625289917, 0.0
1794895, 8.300000190734863, 99.63099670410156, 117.09516906738281, 119.66505432128906, -19.678573608398438, -16.22213363647461, -15.32049560546875, 0.15149399638175964, 23.77271270751953, 54.9133186340332, 128.17300415039062, 39.24174118041992, 2.0851306915283203, 3.542999267578125, 0.7897199988365173, 0.11823622137308121, 0.6019663214683533, 0.190794438123703, 0.8852503895759583, -0.4241812527179718, -0.5830443501472473, 0.44983625411987305, 0.6765407919883728, 0.0
1794905, 8.279999732971191, 99.61799621582031, 115.44412231445312, 119.2152099609375, -18.76930046081543, -16.429828643798828, -15.589277267456055, 0.058642998337745667, 25.43444061279297, 70.38136291503906, 133.09532165527344, 32.83384704589844, 4.592353820800781, -5.262054443359375, 0.8748098015785217, 0.02814611792564392, 0.4836491346359253, 0.13471096754074097, 0.9448094367980957, -0.2986445724964142, -0.4653618335723877, 0.32641008496284485, 0.8227366209030151, 0.0
1794915, 8.289999961853027, 99.61299896240234, 114.65448760986328, 119.12906646728516, -17.48196029663086, -16.720598220825195, -15.823848724365234, -0.07574699819087982, 26.832984924316406, 80.53656005859375, 136.4573974609375, 28.852502822875977, 3.7108078002929688, -1.4855804443359375, 0.9401822090148926, -0.040212295949459076, 0.3382917046546936, 0.0978875607252121, 0.9830217957496643, -0.15519912540912628, -0.32630711793899536, 0.17903010547161102, 0.9281555414199829, 0.0
1794925, 8.279999732971191, 99.59700012207031, 114.30992126464844, 118.77971649169922, -16.232908248901367, -17.050466537475586, -16.07796859741211, -0.18814599514007568, 28.264467239379883, 89.8432846069336, 139.54908752441406, 25.270132064819336, 2.308216094970703, -0.6192626953125, 0.9815783500671387, -0.08216056227684021, 0.17249484360218048, 0.08345641195774078, 0.996511697769165, -0.0002612769603729248, -0.171871617436409, 0.014652416110038757, 0.9850107431411743, 0.0
1794935, 8.289999961853027, 99.5780029296875, 115.03733825683594, 116.86067199707031, -16.931612014770508, -17.44875144958496, -16.285663604736328, -0.24678899347782135, 29.79810905456543, 99.29556274414062, 142.34568786621094, 21.630937576293945, 2.077482223510742, -0.4906768798828125, 0.9955217242240906, -0.09441230446100235, -0.004864320158958435, 0.09398455172777176, 0.9828311800956726, 0.15877778828144073, -0.010209783911705017, -0.15852367877960205, 0.9873027801513672, 0.0
1794945, 8.289999961853027, 99.56999969482422, 114.20941925048828, 115.94182586669922, -16.945968627929688, -17.87635612487793, -16.442045211791992, -0.2101369947195053, 31.136648178100586, 105.05966186523438, 143.08279418945312, 19.65869903564453, 2.1074657440185547, -0.84259033203125, 0.9801310300827026, -0.07540841400623322, -0.18346016108989716, 0.1309623420238495, 0.9406766295433044, 0.3130127191543579, 0.14897285401821136, -0.33081960678100586, 0.9318617582321167, 0.0
1794955, 8.279999732971191, 99.56900024414062, 114.63056182861328, 115.44890594482422, -19.956140518188477, -18.33572769165039, -16.703495025634766, -0.11972899734973907, 32.13994216918945, 105.7921142578125, 142.71841430664062, 19.97231101989746, 1.1354103088378906, -1.235137939453125, 0.9350759983062744, -0.024754565209150314, -0.35358309745788574, 0.1941952109336853, 0.8702940344810486, 0.4526335597038269, 0.29651641845703125, -0.4919106662273407, 0.8185980916023254, 0.0
1794965, 8.300000190734863, 99.57499694824219, 113.0417251586914, 113.65907287597656, -21.879968643188477, -18.631385803222656, -17.05535316467285, 0.046424999833106995, 32.70256423950195, 100.77579498291016, 137.46432495117188, 22.837318420410156, -0.18267822265625, -0.0507659912109375, 0.8614369630813599, 0.055244822055101395, -0.5048518180847168, 0.28196340799331665, 0.774761438369751, 0.5658992528915405, 0.422402560710907, -0.6298359632492065, 0.6518309712409973, 0.0
1794975, 8.279999732971191, 99.5739974975586, 112.64451599121094, 113.9797134399414, -23.698514938354492, -18.685142517089844, -17.228839874267578, 0.07818999886512756, 33.08420181274414, 94.03255462646484, 133.75677490234375, 26.490699768066406, -1.6854705810546875, -2.3890838623046875, 0.7635651230812073, 0.16080155968666077, -0.6253895163536072, 0.38728687167167664, 0.6609271764755249, 0.6427944898605347, 0.5166990756988525, -0.7330203056335449, 0.44238460063934326, 0.0
1794985, 8.289999961853027, 99.59300231933594, 110.26605224609375, 115.31490325927734, -23.736799240112305, -18.719350814819336, -17.385221481323242, 0.06352899968624115, 32.84931182861328, 80.2127685546875, 126.20710754394531, 33.30268478393555, -2.1234474182128906, -0.054168701171875, 0.647200345993042, 0.2857523560523987, -0.7067376375198364, 0.5031556487083435, 0.5363393425941467, 0.6776245832443237, 0.5726838111877441, -0.7941576838493347, 0.20334120094776154, 0.0
1794995, 8.279999732971191, 99.57599639892578, 109.34242248535156, 115.68340301513672, -21.23390769958496, -18.80487060546875, -17.55381965637207, -0.05619899928569794, 32.998226165771484, 73.01675415039062, 122.0130615234375, 37.10417938232422, -3.9648094177246094, -0.7376861572265625, 0.5189962387084961, 0.42315924167633057, -0.7426843047142029, 0.6217044591903687, 0.409417986869812, 0.6677283644676208, 0.58662348985672, -0.8082784414291382, -0.050593435764312744, 0.0
1795005, 8.289999961853027, 99.56199645996094, 110.31390380859375, 113.91749572753906, -19.343576431274414, -19.03944206237793, -17.75662612915039, -0.23457199335098267, 33.3897819519043, 69.81612396240234, 119.4697036743164, 39.0858039855957, -2.2124366760253906, -0.392547607421875, 0.3863493800163269, 0.5651580095291138, -0.7289248704910278, 0.7353382706642151, 0.2883347272872925, 0.6133037209510803, 0.5567876696586609, -0.7729556560516357, -0.30418407917022705, 0.0
1795015, 8.289999961853027, 99.55000305175781, 110.24691009521484, 112.19944763183594, -19.8939266204834, -19.37908363342285, -17.910564422607422, -0.28588399291038513, 33.926185607910156, 68.85975646972656, 117.25792694091797, 40.035343170166016, -1.1563682556152344, -0.561737060546875, 0.2590178847312927, 0.7018404006958008, -0.6635740995407104, 0.8365728855133057, 0.1803671419620514, 0.5173144340515137, 0.48275893926620483, -0.689121663570404, -0.5404220223426819, 0.0
1795025, 8.289999961853027, 99.53900146484375, 109.31849670410156, 111.51031494140625, -20.75055694580078, -19.662525177001953, -17.978981018066406, -0.2516759932041168, 34.563720703125, 69.30229949951172, 115.80252838134766, 40.34697723388672, -0.5626678466796875, -1.262237548828125, 0.14731639623641968, 0.8223659992218018, -0.5495569705963135, 0.9179325103759766, 0.09325984865427017, 0.3856205344200134, 0.36837267875671387, -0.5612643361091614, -0.7411374449729919, 0.0
1795035, 8.279999732971191, 99.58300018310547, 109.28977966308594, 109.68220520019531, -26.58904457092285, -20.10234832763672, -18.30640411376953, -0.1221729964017868, 33.95927429199219, 53.746639251708984, 106.98554992675781, 47.85098648071289, -0.19095993041992188, -1.143768310546875, 0.05942538380622864, 0.9178022146224976, -0.3925664722919464, 0.9740375876426697, 0.0327465757727623, 0.22400690615177155, 0.2184491902589798, -0.39568620920181274, -0.8920274972915649, 0.0
1795045, 8.289999961853027, 99.56600189208984, 107.2798080444336, 109.89755249023438, -25.062423706054688, -20.138999938964844, -18.48233413696289, -0.08307699859142303, 33.83307647705078, 46.2366828918457, 101.87326049804688, 51.69426345825195, -4.371910095214844, -1.3129730224609375, 0.0029243603348731995, 0.9785131216049194, -0.20616556704044342, 0.998994767665863, 0.006365008652210236, 0.044380903244018555, 0.044739559292793274, -0.20608820021152496, -0.9775104522705078, 0.0
1795055, 8.289999961853027, 99.552001953125, 105.0975570678711, 111.1466064453125, -26.50290298461914, -20.229408264160156, -18.690027236938477, -0.1343899965286255, 34.03045654296875, 43.79178237915039, 99.6640853881836, 53.243587493896484, -2.2442779541015625, -1.269012451171875, -0.018121294677257538, 0.9998306632041931, -0.003299728035926819, 0.9899468421936035, 0.01747877523303032, -0.14035817980766296, -0.14027664065361023, -0.005810186266899109, -0.9900956153869629, 0.0
1795065, 8.289999961853027, 99.46600341796875, 103.26943969726562, 112.09895324707031, -26.919254302978516, -20.44931983947754, -18.907495498657227, -0.268779993057251, 36.2244758605957, 67.24569702148438, 109.1629638671875, 43.125465393066406, -0.906005859375, -0.65985107421875, -0.0018439819104969501, 0.9793143272399902, 0.20233801007270813, 0.9463805556297302, 0.06707432866096497, -0.3160153031349182, -0.3230498433113098, 0.19090582430362701, -0.926927387714386, 0.0
1795075, 8.289999961853027, 99.41200256347656, 102.7430191040039, 110.34740447998047, -27.39303207397461, -20.6252498626709, -19.04677391052246, -0.4935790002346039, 39.23243713378906, 98.21903991699219, 121.02706909179688, 29.65058135986328, 5.874298095703125, -0.6192474365234375, 0.05070824548602104, 0.9174498319625854, 0.3946076035499573, 0.8706805109977722, 0.1529405266046524, -0.46746718883514404, -0.4892289638519287, 0.3672812879085541, -0.7910500168800354, 0.0
1795085, 8.279999732971191, 99.39399719238281, 103.81978607177734, 108.79206848144531, -27.737598419189453, -20.823169708251953, -19.168947219848633, -0.6743950247764587, 41.994720458984375, 122.18057250976562, 130.93496704101562, 19.404293060302734, 7.816356658935547, -1.61077880859375, 0.13683798909187317, 0.8181595802307129, 0.5584719777107239, 0.7679752111434937, 0.26847952604293823, -0.5814926624298096, -0.625691831111908, 0.5084625482559204, -0.5915878415107727, 0.0
1795095, 8.279999732971191, 99.4219970703125, 105.08319854736328, 106.02117919921875, -29.029722213745117, -21.06507110595703, -19.415735244750977, -0.7696899771690369, 43.43254852294922, 126.17636108398438, 131.09410095214844, 18.17919158935547, 5.951198577880859, -0.3383941650390625, 0.25215697288513184, 0.6882632374763489, 0.6802288293838501, 0.645084798336029, 0.4044125974178314, -0.6483185291290283, -0.7213066220283508, 0.6022829413414001, -0.34201255440711975, 0.0
1795105, 8.279999732971191, 99.41699981689453, 107.37073516845703, 100.88618469238281, -33.662227630615234, -21.431591033935547, -19.679630279541016, -0.6230819821357727, 44.582767486572266, 125.97272491455078, 128.42877197265625, 18.83106803894043, 0.7027091979980469, -1.0659637451171875, 0.3900078237056732, 0.5360225439071655, 0.7487152218818665, 0.5123518705368042, 0.5492894649505615, -0.660134494304657, -0.7651079893112183, 0.64106285572052, -0.06040492653846741, 0.0
1795115, 8.270000457763672, 99.40399932861328, 107.49994659423828, 99.50313568115234, -36.232120513916016, -21.309417724609375, -19.872663497924805, -0.49602198600769043, 45.70298385620117, 125.38551330566406, 126.712890625, 19.66033935546875, -0.39617919921875, -2.013458251953125, 0.5381754636764526, 0.37706589698791504, 0.7537832260131836, 0.3814055323600769, 0.6885778903961182, -0.6167586445808411, -0.7515967488288879, 0.619421124458313, 0.22676053643226624, 0.0
1795125, 8.279999732971191, 99.38700103759766, 105.29376220703125, 99.99605560302734, -39.280574798583984, -21.26543617248535, -20.082801818847656, -0.4007270038127899, 46.90195846557617, 125.86753845214844, 125.16600036621094, 19.995756149291992, -0.48954010009765625, -0.8866119384765625, 0.6835295557975769, 0.224378764629364, 0.6945805549621582, 0.263217955827713, 0.8117845058441162, -0.5212706327438354, -0.6808115243911743, 0.5391296744346619, 0.4958178997039795, 0.0
1795135, 8.279999732971191, 99.37300109863281, 103.18329620361328, 100.69476318359375, -38.596229553222656, -21.16769790649414, -20.305156707763672, -0.46425700187683105, 48.07987976074219, 126.00330352783203, 123.68026733398438, 20.483243942260742, -0.20536422729492188, -1.2114715576171875, 0.8127190470695496, 0.09246577322483063, 0.5752725005149841, 0.1667998731136322, 0.9090830683708191, -0.38176771998405457, -0.5582707524299622, 0.4062250852584839, 0.7234054803848267, 0.0
1795145, 8.279999732971191, 99.34600067138672, 102.14002227783203, 100.6325454711914, -35.787052154541016, -21.109054565429688, -20.6130313873291, -0.6475170254707336, 49.559654235839844, 129.97889709472656, 124.14300537109375, 19.23879623413086, -0.29189300537109375, -0.9982452392578125, 0.9142723083496094, -0.006160132586956024, 0.405053973197937, 0.09926965087652206, 0.9728058576583862, -0.20927295088768005, -0.3927496671676636, 0.23154188692569733, 0.8900205492973328, 0.0
1795155, 8.279999732971191, 99.33799743652344, 103.1976547241211, 99.75677490234375, -31.805397033691406, -21.28986930847168, -20.803621292114258, -0.8600980043411255, 50.81836700439453, 130.61392211914062, 123.99673461914062, 19.513668060302734, 0.7164039611816406, -0.781707763671875, 0.9779341220855713, -0.06279109418392181, 0.19925539195537567, 0.06718364357948303, 0.9976229071617126, -0.015353649854660034, -0.19781769812107086, 0.028401494026184082, 0.9798275828361511, 0.0
1795165, 8.279999732971191, 99.32499694824219, 107.54780578613281, 103.55657958984375, -28.54637336730957, -21.614850997924805, -20.906246185302734, -0.9676100015640259, 52.023040771484375, 130.47311401367188, 129.05250549316406, 20.220779418945312, -0.15861892700195312, 0.12860107421875, 0.9971038699150085, -0.07230007648468018, -0.02359996736049652, 0.07542713731527328, 0.9798374176025391, 0.18501441180706024, 0.009747475385665894, -0.18625867366790771, 0.9824526906013489, 0.0
1795175, 8.279999732971191, 99.33799743652344, 109.95977020263672, 86.44310760498047, -33.95893859863281, -22.448070526123047, -21.245887756347656, -0.7843499779701233, 52.551063537597656, 121.71995544433594, 114.29027557373047, 24.587486267089844, -0.361175537109375, 5.7628936767578125, 0.9686124324798584, -0.03399401530623436, -0.24624113738536835, 0.12823939323425293, 0.9169408082962036, 0.37785595655441284, 0.21294352412223816, -0.39757370948791504, 0.8925192952156067, 0.0
1795185, 8.279999732971191, 99.35199737548828, 110.84032440185547, 85.25627136230469, -37.720455169677734, -22.51648712158203, -21.385164260864258, -0.2907710075378418, 52.52902603149414, 106.89689636230469, 106.88996887207031, 31.771196365356445, -2.6271934509277344, -10.395538330078125, 0.8939746022224426, 0.04727593809366226, -0.4456172585487366, 0.2243000715970993, 0.8136767148971558, 0.5363027453422546, 0.387942373752594, -0.5793927907943726, 0.7168020009994507, 0.0
1795195, 8.279999732971191, 99.3479995727539, 108.97871398925781, 88.70193481445312, -39.47200012207031, -22.36988067626953, -21.649059295654297, 0.11239899694919586, 52.49542236328125, 93.75726318359375, 101.59760284423828, 38.18366622924805, -4.176322937011719, -0.2165985107421875, 0.7794453501701355, 0.16475893557071686, -0.6044167876243591, 0.3537728786468506, 0.6804788112640381, 0.641711950302124, 0.5170203447341919, -0.7140054106712341, 0.4721086919307709, 0.0
1795205, 8.279999732971191, 99.322998046875, 106.75338745117188, 92.54959106445312, -38.256446838378906, -22.189064025878906, -22.04734230041504, 0.21502399444580078, 52.98493576049805, 88.9619140625, 100.11180877685547, 40.816612243652344, -3.7166213989257812, 1.1201019287109375, 0.6339650750160217, 0.3101195693016052, -0.7084591388702393, 0.5023021697998047, 0.5314289927482605, 0.682111918926239, 0.5880316495895386, -0.7882953882217407, 0.1811337172985077, 0.0
1795215, 8.279999732971191, 99.29499816894531, 104.95398712158203, 94.55956268310547, -35.557342529296875, -22.15974235534668, -22.40897560119629, 0.03665100038051605, 53.974849700927734, 91.18508911132812, 100.80860137939453, 40.26873016357422, -1.5201072692871094, 1.14715576171875, 0.46972498297691345, 0.4724296033382416, -0.7457672953605652, 0.6534548997879028, 0.38194864988327026, 0.653538703918457, 0.5935955047607422, -0.7943084239959717, -0.12930044531822205, 0.0
1795225, 8.279999732971191, 99.2699966430664, 103.63793182373047, 93.49236297607422, -31.77189826965332, -22.448070526123047, -22.704633712768555, -0.2370149940252304, 55.2838249206543, 97.22150421142578, 101.411865234375, 37.980255126953125, 0.3196601867675781, 0.1489105224609375, 0.3018142580986023, 0.6380116939544678, -0.7084133625030518, 0.7916250824928284, 0.24635782837867737, 0.5591408014297485, 0.5312612056732178, -0.7295541167259216, -0.43071144819259644, 0.0
1795235, 8.270000457763672, 99.26000213623047, 100.69954681396484, 87.41459655761719, -28.599014282226562, -22.88545036315918, -22.922101974487305, -0.513126015663147, 56.49534225463867, 101.23959350585938, 96.48336791992188, 36.533382415771484, 1.3152923583984375, -1.685211181640625, 0.14728105068206787, 0.7897341847419739, -0.5955068469047546, 0.9024711847305298, 0.13910365104675293, 0.4076724946498871, 0.4047897756099701, -0.5974699258804321, -0.6922246217727661, 0.0
1795245, 8.279999732971191, 99.25900268554688, 92.03274536132812, 70.81319427490234, -29.59442901611328, -23.816408157348633, -23.068710327148438, -0.36896198987960815, 57.39586639404297, 100.70785522460938, 78.20771026611328, 36.94173812866211, 0.7857666015625, -6.3753814697265625, 0.026850908994674683, 0.9110939502716064, -0.411323606967926, 0.9744862914085388, 0.06786768138408661, 0.21394245326519012, 0.22283704578876495, -0.4065735936164856, -0.8860256671905518, 0.0
1795255, 8.270000457763672, 99.26000213623047, 87.0030288696289, 65.84090423583984, -30.982267379760742, -24.12917137145996, -23.171335220336914, -0.12461599707603455, 58.00144958496094, 96.29075622558594, 68.89986419677734, 39.17707443237305, -0.3914680480957031, -17.867324829101562, -0.04337107762694359, 0.9829527139663696, -0.1786707490682602, 0.9990497827529907, 0.043460436165332794, -0.0034162551164627075, 0.004407033324241638, -0.17864909768104553, -0.9839029908180237, 0.0
1795265, 8.270000457763672, 99.2509994506836, 83.09794616699219, 62.68238067626953, -32.097320556640625, -24.29043960571289, -23.3765869140625, 0.09529399871826172, 58.60594177246094, 92.33907318115234, 61.890350341796875, 41.19186782836914, -1.3599815368652344, -7.072517395019531, -0.05458904057741165, 0.9956459999084473, 0.0755600780248642, 0.9724635481834412, 0.07018382847309113, -0.22223810851573944, -0.22657349705696106, 0.06134754419326782, -0.9720601439476013, 0.0
1795275, 8.270000457763672, 99.23799896240234, 78.14958953857422, 59.255859375, -32.70988464355469, -24.3881778717041, -23.672243118286133, 0.21746699512004852, 59.316650390625, 90.19078826904297, 54.81071853637695, 42.34955596923828, -1.2138938903808594, -4.994728088378906, -0.004927456378936768, 0.9467611908912659, 0.32189956307411194, 0.8960396647453308, 0.14709031581878662, -0.418901264667511, -0.44394755363464355, 0.2863703966140747, -0.8490597605705261, 0.0
1795285, 8.279999732971191, 99.21299743652344, 72.61259460449219, 57.65745162963867, -34.18864822387695, -24.544559478759766, -23.899486541748047, 0.2492319941520691, 60.40568542480469, 93.10357666015625, 50.90459060668945, 41.21019744873047, -0.7238311767578125, -5.9219512939453125, 0.10042044520378113, 0.8407897353172302, 0.5319669246673584, 0.777219831943512, 0.26751434803009033, -0.5695316791534424, -0.6211647987365723, 0.4706474840641022, -0.6266140341758728, 0.0
1795295, 8.270000457763672, 99.16300201416016, 68.20022583007812, 55.901119232177734, -34.84428024291992, -24.52989959716797, -24.028989791870117, 0.13927699625492096, 62.39209747314453, 107.11470794677734, 52.685264587402344, 35.06759262084961, 0.6185455322265625, -5.045494079589844, 0.2485489845275879, 0.6904667019844055, 0.6793229579925537, 0.6290133595466614, 0.418274849653244, -0.6552779674530029, -0.7365908026695251, 0.5901714563369751, -0.3303506374359131, 0.0
1795305, 8.270000457763672, 99.13899993896484, 62.720664978027344, 41.745182037353516, -30.393632888793945, -24.784019470214844, -24.324647903442383, -0.268779993057251, 64.46932220458984, 120.51026153564453, 44.799781799316406, 29.068702697753906, 3.531829833984375, -4.3619384765625, 0.422303706407547, 0.5127216577529907, 0.7475135922431946, 0.4654645025730133, 0.5849699974060059, -0.6641939878463745, -0.7778190970420837, 0.6284321546554565, 0.008381396532058716, 0.0
1795315, 8.270000457763672, 99.10900115966797, 47.22474670410156, 32.025535583496094, -29.27857780456543, -25.082120895385742, -24.34663963317871, -0.2981019914150238, 66.73721313476562, 134.5592803955078, 33.356815338134766, 22.681575775146484, 3.36614990234375, -13.884391784667969, 0.6025808453559875, 0.32728448510169983, 0.7278611063957214, 0.30902618169784546, 0.7451987862586975, -0.5909165143966675, -0.7357984185218811, 0.5810026526451111, 0.34790295362472534, 0.0
1795325, 8.279999732971191, 99.0780029296875, 37.878379821777344, 21.693328857421875, -29.867210388183594, -25.265380859375, -24.429716110229492, -0.2834410071372986, 69.17716217041016, 148.90603637695312, 25.956478118896484, 16.167057037353516, 3.557708740234375, -17.830116271972656, 0.7683744430541992, 0.1571061611175537, 0.62041836977005, 0.17892158031463623, 0.878018319606781, -0.44392746686935425, -0.6144818067550659, 0.45210832357406616, 0.6465368270874023, 0.0
1795335, 8.279999732971191, 99.03500366210938, 29.340789794921875, 9.896714210510254, -29.8624267578125, -25.460857391357422, -24.488359451293945, -0.2370149940252304, 72.0335464477539, 166.68429565429688, 19.677400588989258, 8.067678451538086, 3.6655197143554688, -13.914875030517578, 0.8990795612335205, 0.0230138897895813, 0.43718066811561584, 0.09203484654426575, 0.9663649797439575, -0.2401440590620041, -0.4280022382736206, 0.2561441659927368, 0.8667201995849609, 0.0
1795345, 8.270000457763672, 98.96499633789062, 17.36710548400879, -1.4452639818191528, -31.221548080444336, -25.470630645751953, -24.5396728515625, -0.0879639983177185, 75.8514633178711, 194.45498657226562, 15.847687721252441, -4.589265823364258, 4.582481384277344, -14.378475189208984, 0.9781126379966736, -0.0581502690911293, 0.19978702068328857, 0.060606423765420914, 0.9981429576873779, -0.0061940997838974, -0.1990555226802826, 0.018166810274124146, 0.979819655418396, 0.10501773655414581
1795355, 8.270000457763672, 98.88999938964844, 8.389236450195312, -11.791829109191895, -32.52803039550781, -25.463300704956055, -24.649627685546875, -0.017103999853134155, 80.53094482421875, 229.67755126953125, 18.169904708862305, -20.575927734375, 7.2126922607421875, -16.486679077148438, 0.9951305985450745, -0.07554711401462555, -0.06331200897693634, 0.08814263343811035, 0.9695454239845276, 0.22850260138511658, 0.04412125051021576, -0.2329702377319336, 0.9714822769165039, 0.2560909688472748
1795365, 8.270000457763672, 98.8010025024414, -1.7276170253753662, -17.13739585876465, -31.575687408447266, -25.49995231628418, -24.762027740478516, 0.046424999833106995, 86.2135238647461, 273.2689514160156, 26.939138412475586, -40.278743743896484, 9.171943664550781, -13.664463996887207, 0.9471651315689087, -0.026648297905921936, -0.31963855028152466, 0.17162944376468658, 0.8839812278747559, 0.4348808825016022, 0.2709655165672302, -0.4667629599571228, 0.8418489694595337, 0.4430590271949768
1795375, 8.270000457763672, 98.7020034790039, -11.863614082336426, -27.383460998535156, -28.249662399291992, -25.666107177734375, -24.832887649536133, -0.16615499556064606, 92.88854217529297, 324.0795593261719, 35.491512298583984, -63.243404388427734, 11.354965209960938, -10.933597564697266, 0.8396432399749756, 0.0859001949429512, -0.5363031625747681, 0.2986968457698822, 0.7516600489616394, 0.5880375504493713, 0.45362991094589233, -0.6539331674575806, 0.6054675579071045, 0.6609910130500793
1795385, 8.260000228881836, 98.62899780273438, -16.24247932434082, -31.030122756958008, -25.8759822845459, -25.68565559387207, -24.85487937927246, -0.2516759932041168, 99.69483184814453, 370.1374206542969, 50.473609924316406, -83.90040588378906, 13.220405578613281, -14.41230583190918, 0.685753345489502, 0.24639680981636047, -0.6848589181900024, 0.4547809362411499, 0.5895947813987732, 0.6674977540969849, 0.5682581067085266, -0.7691988348960876, 0.29225966334342957, 0.8585379719734192
1795395, 8.260000228881836, 98.58100128173828, -20.070995330810547, -34.58107376098633, -25.93341064453125, -25.78095054626465, -24.744922637939453, -0.1417199969291687, 105.95344543457031, 403.40509033203125, 60.0809326171875, -98.7258071899414, 11.954818725585938, -5.674915313720703, 0.5063196420669556, 0.4336429834365845, -0.7453824281692505, 0.6206679940223694, 0.4168240427970886, 0.6641008853912354, 0.5986754894256592, -0.798881471157074, -0.05810213088989258, 1.0
1795405, 8.270000457763672, 98.54499816894531, -26.04826545715332, -40.347774505615234, -26.67997169494629, -25.78339385986328, -24.76691436767578, -0.12950299680233002, 111.46053314208984, 422.8583984375, 60.38627624511719, -107.33538818359375, 8.570014953613281, -5.218082427978516, 0.3231963515281677, 0.6240583658218384, -0.7114043235778809, 0.7756432294845581, 0.25598204135894775, 0.5769331455230713, 0.5421462655067444, -0.7382577657699585, -0.40131381154060364, 1.0
1795415, 8.270000457763672, 98.51300048828125, -29.64228630065918, -41.936607360839844, -26.0626220703125, -25.734525680541992, -24.737592697143555, -0.20524999499320984, 116.22407531738281, 430.2840576171875, 59.84662628173828, -110.46057891845703, 4.931373596191406, -8.304248809814453, 0.1592842936515808, 0.7935073971748352, -0.5873459577560425, 0.8996131420135498, 0.1283682882785797, 0.4173952341079712, 0.40660250186920166, -0.5948679447174072, -0.6934020519256592, 1.0
1795425, 8.270000457763672, 98.49600219726562, -29.020151138305664, -41.874393463134766, -26.593830108642578, -25.68565559387207, -24.74736785888672, -0.30054500699043274, 120.02959442138672, 424.4662780761719, 57.43512725830078, -107.56517028808594, 1.784423828125, -3.6648406982421875, 0.03451359272003174, 0.9205729365348816, -0.3890437185764313, 0.9773122072219849, 0.05030900239944458, 0.20574456453323364, 0.20897512137889862, -0.38731759786605835, -0.8979500532150269, 1.0
1795435, 8.270000457763672, 98.47599792480469, -29.781070709228516, -40.677982330322266, -27.46481704711914, -25.666107177734375, -24.703384399414062, -0.31276199221611023, 123.14302062988281, 410.4962463378906, 51.19148635864258, -101.01358795166016, -1.6783447265625, 0.4839057922363281, -0.0347324013710022, 0.9893676042556763, -0.14123068749904633, 0.9990606904029846, 0.030705798417329788, -0.030592024326324463, -0.025930121541023254, -0.14216022193431854, -0.9895038604736328, 1.0
1795445, 8.260000228881836, 98.44300079345703, -28.93879508972168, -40.85983657836914, -25.339990615844727, -25.71009063720703, -24.62274932861328, -0.47158700227737427, 126.0277099609375, 395.325927734375, 44.59232711791992, -93.94744873046875, -3.8044662475585938, 0.3079376220703125, -0.04139058664441109, 0.9912133812904358, 0.1256328523159027, 0.9624794721603394, 0.07330550253391266, -0.2612670361995697, -0.2681806981563568, 0.11010518670082092, -0.9570557475090027, 0.9973321557044983
1795455, 8.270000457763672, 98.42900085449219, -27.273391723632812, -42.60181427001953, -26.321048736572266, -25.678325653076172, -24.542116165161133, -0.4520399868488312, 128.28695678710938, 374.01824951171875, 34.74681854248047, -84.15608215332031, -4.102104187011719, 0.46697998046875, 0.01666257530450821, 0.9258541464805603, 0.3775145411491394, 0.872765064239502, 0.17075631022453308, -0.45730119943618774, -0.4878567159175873, 0.3371012210845947, -0.8052070140838623, 0.9113012552261353
1795465, 8.270000457763672, 98.40499877929688, -28.01995277404785, -41.017765045166016, -27.852455139160156, -25.68565559387207, -24.537229537963867, -0.3371970057487488, 130.29689025878906, 352.15374755859375, 25.331707000732422, -74.1487808227539, -5.6902313232421875, -0.054141998291015625, 0.1329011172056198, 0.8013831973075867, 0.5832006931304932, 0.7413931488990784, 0.3101336359977722, -0.5951085686683655, -0.6577794551849365, 0.5114713311195374, -0.552922248840332, 0.8213498592376709
1795475, 8.270000457763672, 98.38300323486328, -29.077579498291016, -39.97449493408203, -28.934009552001953, -25.61235237121582, -24.49324607849121, -0.32986700534820557, 132.08251953125, 330.12872314453125, 15.293310165405273, -64.12053680419922, -5.8101348876953125, 0.592193603515625, 0.29143819212913513, 0.6338518857955933, 0.7164469957351685, 0.5849513411521912, 0.4745253026485443, -0.6577678322792053, -0.7568987607955933, 0.6107849478721619, -0.2324773371219635, 0.7293654680252075
1795485, 8.270000457763672, 98.35900115966797, -29.249862670898438, -38.00759506225586, -29.178077697753906, -25.433979034423828, -24.422386169433594, -0.3860659897327423, 133.761962890625, 309.47259521484375, 7.176456451416016, -54.73469924926758, -5.8274993896484375, -0.01015472412109375, 0.47172391414642334, 0.4454424977302551, 0.7609588503837585, 0.42274418473243713, 0.6431054472923279, -0.6385167241096497, -0.7737982869148254, 0.6228940486907959, 0.11506009101867676, 0.6425341963768005
1795495, 8.260000228881836, 98.33799743652344, -29.27379035949707, -37.98844909667969, -27.857240676879883, -25.299589157104492, -24.341751098632812, -0.5302299857139587, 135.30320739746094, 289.6170349121094, -1.796971321105957, -45.764652252197266, -5.4431610107421875, 1.2689857482910156, 0.6511811017990112, 0.2600136399269104, 0.7129915356636047, 0.2738603949546814, 0.7956721186637878, -0.5402844548225403, -0.7077878713607788, 0.547082781791687, 0.44691893458366394, 0.5583527684211731
1795505, 8.270000457763672, 98.31999969482422, -28.637300491333008, -38.385658264160156, -27.93381118774414, -25.243389129638672, -24.18292808532715, -0.632856011390686, 136.67965698242188, 270.1106262207031, -10.402812957763672, -36.98960876464844, -5.2125244140625, -0.00337982177734375, 0.808124840259552, 0.09969192743301392, 0.580514132976532, 0.15654991567134857, 0.913771390914917, -0.3748530447483063, -0.5678262114524841, 0.39380720257759094, 0.7228341102600098, 0.47483351826667786
1795515, 8.260000228881836, 98.30500030517578, -27.503101348876953, -39.07000732421875, -29.005794525146484, -25.14565086364746, -24.01677131652832, -0.6524029970169067, 137.86956787109375, 250.6327362060547, -18.810409545898438, -28.263927459716797, -5.09771728515625, 0.16920089721679688, 0.9245203733444214, -0.016723334789276123, 0.3807668685913086, 0.08499929308891296, 0.9829230308532715, -0.16321223974227905, -0.37153440713882446, 0.1832578331232071, 0.9101531505584717, 0.3905811607837677
1795525, 8.260000228881836, 98.28700256347656, -25.622344970703125, -39.850067138671875, -30.479774475097656, -24.9819393157959, -23.955686569213867, -0.6450729966163635, 139.00209045410156, 232.83822631835938, -25.96900749206543, -20.327016830444336, -5.0677490234375, 0.318084716796875, 0.9875717759132385, -0.07591867446899414, 0.13762028515338898, 0.06703892350196838, 0.9954270720481873, 0.06805512309074402, -0.1421571522951126, -0.05798330903053284, 0.9881443381309509, 0.31335684657096863
1795535, 8.260000228881836, 98.26699829101562, -25.115066528320312, -40.079776763916016, -32.025535583496094, -24.759584426879883, -23.897043228149414, -0.5791000127792358, 140.15045166015625, 217.46182250976562, -32.580291748046875, -13.519460678100586, -4.6054229736328125, 0.7783126831054688, 0.9901672005653381, -0.072378009557724, -0.11971375346183777, 0.10467236489057541, 0.9510542750358582, 0.2907578647136688, 0.09281007945537567, -0.3004293143749237, 0.9492778778076172, 0.24667192995548248
1795545, 8.260000228881836, 98.24400329589844, -26.790040969848633, -38.89772415161133, -29.938995361328125, -24.598316192626953, -23.909259796142578, -0.5668820142745972, 141.4037628173828, 205.34153747558594, -38.23283386230469, -8.215465545654297, -3.9541778564453125, 0.1962738037109375, 0.9322324395179749, -0.007055304944515228, -0.3617927134037018, 0.19253066182136536, 0.8562190532684326, 0.47939711809158325, 0.3063915967941284, -0.516565203666687, 0.7995526790618896, 0.1945144534111023
1795555, 8.260000228881836, 98.21700286865234, -25.73241424560547, -38.71586990356445, -27.89073944091797, -24.50057601928711, -23.897043228149414, -0.6426299810409546, 142.8526153564453, 197.23037719726562, -40.84846496582031, -4.723389625549316, -3.0851593017578125, -0.34854888916015625, 0.8205677270889282, 0.11273416876792908, -0.5603219270706177, 0.3192879557609558, 0.7227041721343994, 0.612988293170929, 0.4740515649318695, -0.6819016933441162, 0.5570323467254639, 0.16052262485027313
1795565, 8.260000228881836, 98.19599914550781, -24.990638732910156, -39.180076599121094, -25.962125778198242, -24.45903968811035, -23.84572982788086, -0.6719509959220886, 144.32139587402344, 190.3907012939453, -43.550048828125, -1.825533151626587, -2.0216827392578125, 0.8764457702636719, 0.6683936715126038, 0.27249252796173096, -0.6920973658561707, 0.47031915187835693, 0.5660234093666077, 0.6770658493041992, 0.5762383937835693, -0.7780522108078003, 0.2501676082611084, 0.13212163746356964
1795575, 8.260000228881836, 98.17400360107422, -24.770498275756836, -39.10829162597656, -25.73241424560547, -24.566551208496094, -23.83839988708496, -0.632856011390686, 145.83522033691406, 184.98060607910156, -45.58595657348633, 0.41680049896240234, -1.6822509765625, 0.1962738037109375, 0.4933837652206421, 0.45412224531173706, -0.7418533563613892, 0.6288396120071411, 0.40302377939224243, 0.6649311184883118, 0.6009442210197449, -0.7945719957351685, -0.08672471344470978, 0.11011728644371033
1795585, 8.25, 98.14600372314453, -24.449861526489258, -38.519657135009766, -25.928625106811523, -24.647184371948242, -23.706453323364258, -0.5155699849128723, 147.5386199951172, 182.67620849609375, -45.78466033935547, 1.2584517002105713, -1.301239013671875, 0.20642471313476562, 0.31748178601264954, 0.6361193060874939, -0.7032485604286194, 0.7760152220726013, 0.25193047523498535, 0.5782146453857422, 0.54498291015625, -0.7293033003807068, -0.4136546850204468, 0.10241758823394775
1795595, 8.25, 98.12200164794922, -24.48814582824707, -38.730224609375, -26.78046989440918, -24.590984344482422, -23.691791534423828, -0.4544830024242401, 149.2932891845703, 181.32305908203125, -46.36103057861328, 1.658853530883789, -0.4835357666015625, 0.6429481506347656, 0.16031868755817413, 0.7968916893005371, -0.5824624300003052, 0.895294725894928, 0.13107624650001526, 0.42575469613075256, 0.4156271815299988, -0.5897311568260193, -0.6924384832382202, 0.09909603744745255
1795605, 8.25, 98.11100006103516, -24.68914222717285, -38.80679702758789, -27.790241241455078, -24.5323429107666, -23.667356491088867, -0.4007270038127899, 150.77737426757812, 176.66798400878906, -48.441131591796875, 3.5426878929138184, -0.23419189453125, -0.17596817016601562, 0.04011887311935425, 0.9182651042938232, -0.39392971992492676, 0.9727656841278076, 0.054182469844818115, 0.22537073493003845, 0.22829410433769226, -0.39224228262901306, -0.8910822868347168, 0.08016491681337357
1795615, 8.260000228881836, 98.09400177001953, -25.210777282714844, -37.658241271972656, -29.024938583374023, -24.478586196899414, -23.650253295898438, -0.35430100560188293, 152.19967651367188, 171.7982635498047, -49.97842025756836, 5.523275852203369, -1.0963897705078125, -0.19626617431640625, -0.029426738619804382, 0.986724853515625, -0.159715935587883, 0.9995553493499756, 0.029830727726221085, 0.00013235211372375488, 0.004895150661468506, -0.1596406102180481, -0.9871629476547241, 0.06002766638994217
1795625, 8.260000228881836, 98.07099914550781, -25.445274353027344, -36.356544494628906, -28.48894500732422, -24.2562313079834, -23.58916664123535, -0.427605003118515, 153.71804809570312, 168.77052307128906, -50.37294387817383, 6.672417640686035, -1.1470947265625, 0.44329833984375, -0.04182960093021393, 0.9949277639389038, 0.09148901700973511, 0.9727255702018738, 0.061463698744773865, -0.22366948425769806, -0.22815784811973572, 0.07963785529136658, -0.970361590385437, 0.04840746149420738
1795635, 8.25, 98.03700256347656, -24.258434295654297, -37.658241271972656, -24.832712173461914, -24.19270133972168, -23.576948165893555, -0.5668820142745972, 155.58578491210938, 170.60797119140625, -49.399085998535156, 5.617354869842529, -0.6612548828125, 0.7546195983886719, 0.0031545180827379227, 0.942984402179718, 0.3328237235546112, 0.8953874707221985, 0.14553678035736084, -0.420833945274353, -0.44527730345726013, 0.2993336319923401, -0.8438763618469238, 0.059780754148960114
1795645, 8.260000228881836, 98.0260009765625, -23.497516632080078, -36.93560791015625, -23.971296310424805, -24.180484771728516, -23.469436645507812, -0.5473350286483765, 157.17518615722656, 168.6492156982422, -49.024986267089844, 6.292281627655029, 0.612396240234375, -0.08120346069335938, 0.10142777860164642, 0.8369861841201782, 0.537743091583252, 0.7770057916641235, 0.27090713381767273, -0.568218469619751, -0.621268630027771, 0.4754623472690582, -0.6228649020195007, 0.053155578672885895
1795655, 8.25, 97.99299621582031, -23.200807571411133, -38.09373474121094, -25.531417846679688, -24.229352951049805, -23.32282829284668, -0.44226598739624023, 159.06654357910156, 170.8177032470703, -48.428245544433594, 5.086429119110107, -0.383148193359375, 1.0490264892578125, 0.241915762424469, 0.6883076429367065, 0.6838935613632202, 0.6320528984069824, 0.422990620136261, -0.6492987871170044, -0.7361968755722046, 0.589332103729248, -0.33271828293800354, 0.06619265675544739
1795665, 8.260000228881836, 97.98100280761719, -23.70330047607422, -35.80619812011719, -25.722841262817383, -24.131614685058594, -23.2250919342041, -0.3714050054550171, 160.69927978515625, 169.39698791503906, -47.60630416870117, 5.526698589324951, 0.695465087890625, -0.6091117858886719, 0.40832024812698364, 0.5143311619758606, 0.7541479468345642, 0.47699975967407227, 0.5841716527938843, -0.656670093536377, -0.7782966494560242, 0.6278596520423889, -0.006806612014770508, 0.062109317630529404
1795675, 8.25, 97.95700073242188, -24.26800537109375, -35.121849060058594, -25.282562255859375, -24.06319808959961, -23.286178588867188, -0.4007270038127899, 162.41175842285156, 169.1887969970703, -47.40237808227539, 5.407375812530518, -0.2449493408203125, 1.2622108459472656, 0.582395076751709, 0.3347235918045044, 0.7407948970794678, 0.3276452422142029, 0.7373372316360474, -0.5907480716705322, -0.7439519762992859, 0.5867663621902466, 0.31975066661834717, 0.0638212263584137
1795685, 8.25, 97.93399810791016, -24.186649322509766, -35.80619812011719, -24.15315055847168, -23.97523307800293, -23.16156005859375, -0.4520399868488312, 164.1747283935547, 169.65663146972656, -47.398460388183594, 4.977075576782227, 0.070068359375, 0.08460235595703125, 0.7435247898101807, 0.16980892419815063, 0.6467896699905396, 0.20126749575138092, 0.8655451536178589, -0.4586108326911926, -0.6377009153366089, 0.4711660146713257, 0.6093766093254089, 0.06880166381597519
1795695, 8.25, 97.90799713134766, -23.152950286865234, -35.949764251708984, -25.282562255859375, -23.85550308227539, -22.992961883544922, -0.49113500118255615, 166.0442352294922, 171.4309539794922, -45.76633071899414, 3.9743685722351074, 0.246368408203125, -0.42638397216796875, 0.8742771148681641, 0.037660837173461914, 0.48396509885787964, 0.11151083558797836, 0.9547430872917175, -0.2757386863231659, -0.472446084022522, 0.2950392961502075, 0.8305096626281738, 0.08017082512378693
1795705, 8.25, 97.88700103759766, -22.990238189697266, -35.088348388671875, -26.349761962890625, -23.760208129882812, -22.90988540649414, -0.4520399868488312, 167.87782287597656, 172.53233337402344, -44.35113525390625, 3.2833380699157715, 0.588104248046875, 0.629425048828125, 0.9615427255630493, -0.04860997200012207, 0.2703215479850769, 0.06793432682752609, 0.9957249164581299, -0.06259109079837799, -0.2661227583885193, 0.07854822278022766, 0.9607334136962891, 0.08837223798036575
1795715, 8.260000228881836, 97.875, -23.444875717163086, -34.94956588745117, -25.416561126708984, -23.60382652282715, -22.831693649291992, -0.474031001329422, 169.4590606689453, 170.2693328857422, -45.39018630981445, 4.099049091339111, 0.407806396484375, 0.7241668701171875, 0.9963916540145874, -0.07963203638792038, 0.02938435971736908, 0.07407822459936142, 0.9848223328590393, 0.15696598589420319, -0.04143752157688141, -0.1542225182056427, 0.9871667623519897, 0.08015820384025574
1795725, 8.260000228881836, 97.85299682617188, -23.11945152282715, -34.81556701660156, -23.784656524658203, -23.430341720581055, -22.702190399169922, -0.5424479842185974, 171.08399963378906, 168.84732055664062, -45.50593185424805, 4.539658069610596, -0.4759368896484375, -0.22333908081054688, 0.9758002161979675, -0.05261918157339096, -0.21224071085453033, 0.12804080545902252, 0.9243093729019165, 0.3595254421234131, 0.17725828289985657, -0.3779999315738678, 0.9086777567863464, 0.07597416639328003
1795735, 8.239999771118164, 97.8290023803711, -22.10968017578125, -35.15534973144531, -24.330219268798828, -23.520750045776367, -22.60445213317871, -0.5400040149688721, 172.79212951660156, 168.67343139648438, -44.91265106201172, 4.420126914978027, -0.25323486328125, 0.3248634338378906, 0.9026570916175842, 0.028650330379605293, -0.42940694093704224, 0.22436635196208954, 0.8201251029968262, 0.5263604521751404, 0.3672477602958679, -0.5714666843414307, 0.7338627576828003, 0.07789229601621628
1795745, 8.239999771118164, 97.802001953125, -20.731414794921875, -35.55255889892578, -23.856441497802734, -23.40835189819336, -22.582460403442383, -0.47647398710250854, 174.6407928466797, 170.32969665527344, -43.28152084350586, 3.4827077388763428, 0.07354736328125, 0.4737510681152344, 0.7848730087280273, 0.15430721640586853, -0.6001372337341309, 0.35348206758499146, 0.6839672923088074, 0.6381535530090332, 0.5089457035064697, -0.7130062580108643, 0.48228198289871216, 0.08888131380081177
1795755, 8.25, 97.78900146484375, -20.803199768066406, -35.992835998535156, -21.24826431274414, -23.35459327697754, -22.61178207397461, -0.4129439890384674, 176.2667694091797, 168.93321228027344, -44.07200622558594, 3.911121129989624, 0.55072021484375, 0.6937103271484375, 0.6346969604492188, 0.31132927536964417, -0.7072728872299194, 0.5017993450164795, 0.52998948097229, 0.6836002469062805, 0.5876716375350952, -0.7887869477272034, 0.18015754222869873, 0.08478492498397827
1795765, 8.25, 97.76899719238281, -21.052053451538086, -35.7487678527832, -22.53081703186035, -23.427898406982422, -22.53114891052246, -0.26633700728416443, 177.88031005859375, 167.5487060546875, -44.50018310546875, 4.335906505584717, -0.2520751953125, -0.3620719909667969, 0.46918541193008423, 0.4837542772293091, -0.7388152480125427, 0.6532615423202515, 0.37283188104629517, 0.6589738726615906, 0.5942348837852478, -0.7918193340301514, -0.14109081029891968, 0.08069770783185959
1795775, 8.25, 97.75800323486328, -20.559131622314453, -34.461429595947266, -23.636301040649414, -23.381471633911133, -22.526260375976562, -0.16615499556064606, 179.26512145996094, 163.40444946289062, -44.92522048950195, 6.019778728485107, -0.2468719482421875, -0.003391265869140625, 0.3054804801940918, 0.6532899141311646, -0.6927446126937866, 0.7919942736625671, 0.2295566201210022, 0.5657293796539307, 0.5286089777946472, -0.721467912197113, -0.4472764730453491, 0.06276099383831024
1795785, 8.25, 97.73100280761719, -21.46840476989746, -33.528228759765625, -24.87099838256836, -23.325273513793945, -22.567800521850586, -0.1490509957075119, 180.86244201660156, 162.51296997070312, -45.10762023925781, 6.219095230102539, -0.9676361083984375, 1.2588348388671875, 0.1600615680217743, 0.8027704954147339, -0.5744049549102783, 0.9032419323921204, 0.11560961604118347, 0.41326674818992615, 0.3981647491455078, -0.5849737524986267, -0.7065905928611755, 0.06094576045870781
1795795, 8.25, 97.70600128173828, -22.99980926513672, -31.13062286376953, -22.06661033630371, -23.044275283813477, -22.457843780517578, -0.3103190064430237, 182.58517456054688, 163.34255981445312, -43.927730560302734, 5.651712417602539, -0.1156768798828125, 0.016918182373046875, 0.047168269753456116, 0.91614830493927, -0.39805614948272705, 0.9746578931808472, 0.045026399195194244, 0.21912473440170288, 0.21867363154888153, -0.3983035087585449, -0.8908063769340515, 0.06775299459695816
1795805, 8.25, 97.68399810791016, -22.315462112426758, -31.38904571533203, -20.405990600585938, -23.017396926879883, -22.379653930664062, -0.4471530020236969, 184.32655334472656, 164.31602478027344, -42.9951057434082, 5.020256996154785, 0.334991455078125, 0.6125068664550781, -0.022423453629016876, 0.9833587408065796, -0.18028877675533295, 0.9997146129608154, 0.023552577942609787, 0.004125386476516724, 0.008303076028823853, -0.180144265294075, -0.9836050868034363, 0.07535023242235184
1795815, 8.25, 97.66200256347656, -21.04726791381836, -32.695526123046875, -19.33400535583496, -23.034500122070312, -22.269697189331055, -0.5302299857139587, 186.08668518066406, 165.41384887695312, -42.33406066894531, 4.332146167755127, 0.369537353515625, 0.30117034912109375, -0.04156257212162018, 0.9975051879882812, 0.05707289278507233, 0.976479709148407, 0.05264921858906746, -0.20908482372760773, -0.211567685008049, 0.04704071581363678, -0.9762306213378906, 0.08364757150411606
1795825, 8.25, 97.64399719238281, -21.588045120239258, -32.29832077026367, -20.89891242980957, -23.15178680419922, -22.110872268676758, -0.4398219883441925, 187.7642059326172, 165.31741333007812, -42.286922454833984, 4.183486461639404, 0.399627685546875, -0.027065277099609375, -0.007089642807841301, 0.9567776322364807, 0.29073646664619446, 0.9083159565925598, 0.12776091694831848, -0.39829665422439575, -0.4182254672050476, 0.2612568140029907, -0.869961142539978, 0.08592122048139572
1795835, 8.239999771118164, 97.62100219726562, -21.272192001342773, -32.34138870239258, -20.147565841674805, -23.146900177001953, -22.066890716552734, -0.41538798809051514, 189.50106811523438, 165.9950714111328, -41.60151290893555, 3.6909584999084473, 0.08551025390625, -0.10152053833007812, 0.07666312158107758, 0.8650969862937927, 0.4957130551338196, 0.8024400472640991, 0.2415579855442047, -0.5456560850143433, -0.5917880535125732, 0.439611554145813, -0.6756690144538879, 0.09216626733541489
1795845, 8.239999771118164, 97.5989990234375, -19.391433715820312, -33.55694580078125, -20.410776138305664, -23.132240295410156, -21.996030807495117, -0.35430100560188293, 191.25013732910156, 166.74847412109375, -40.61172103881836, 3.171539783477783, 0.287872314453125, 0.19288253784179688, 0.20110152661800385, 0.7317661643028259, 0.6512126326560974, 0.6701486110687256, 0.382102370262146, -0.6363170742988586, -0.7144641876220703, 0.564373254776001, -0.41355010867118835, 0.09885761141777039
1795855, 8.239999771118164, 97.58300018310547, -19.123437881469727, -33.341590881347656, -21.822542190551758, -22.978302001953125, -21.959379196166992, -0.07818999886512756, 192.86972045898438, 165.75411987304688, -40.53981018066406, 3.4414050579071045, 0.3058929443359375, 0.47037506103515625, 0.35478585958480835, 0.5706787109375, 0.7405768632888794, 0.5258668065071106, 0.5331308245658875, -0.662749171257019, -0.7730401754379272, 0.6245783567428589, -0.11095348000526428, 0.09658653289079666
1795865, 8.25, 97.56999969482422, -21.540189743041992, -30.13999366760254, -21.420547485351562, -22.875675201416016, -21.939830780029297, -0.06352899968624115, 194.31858825683594, 162.6986083984375, -41.18600845336914, 4.6425676345825195, -0.15386962890625, 0.3417778015136719, 0.5200761556625366, 0.3983425199985504, 0.7555431127548218, 0.38314464688301086, 0.6817859411239624, -0.6231926083564758, -0.7633616328239441, 0.6135894060134888, 0.20195765793323517, 0.08363427966833115
1795875, 8.239999771118164, 97.55000305175781, -21.683757781982422, -29.599214553833008, -20.846269607543945, -22.719295501708984, -21.842092514038086, -0.15149399638175964, 195.79266357421875, 160.35227966308594, -41.78008270263672, 5.517521381378174, -0.693206787109375, 0.5549659729003906, 0.6794968247413635, 0.23297904431819916, 0.6957055926322937, 0.25579601526260376, 0.8135144710540771, -0.5222676992416382, -0.6876428127288818, 0.5328375101089478, 0.4931848645210266, 0.07422396540641785
1795885, 8.239999771118164, 97.52899932861328, -21.3248348236084, -29.359933853149414, -20.3150634765625, -22.614225387573242, -21.76390266418457, -0.2712239921092987, 197.3185272216797, 158.9654998779297, -41.7995491027832, 5.959981441497803, -0.506011962890625, 0.2808799743652344, 0.8178135752677917, 0.09088331460952759, 0.5682628154754639, 0.15545880794525146, 0.9158515334129333, -0.37020212411880493, -0.5540884733200073, 0.3910975456237793, 0.7348662614822388, 0.06969833374023438
1795895, 8.25, 97.52400207519531, -21.05683708190918, -29.484359741210938, -20.295921325683594, -22.53114891052246, -21.66127586364746, -0.33475399017333984, 198.50091552734375, 153.35122680664062, -44.0385856628418, 8.300539016723633, -0.2534637451171875, 0.4229927062988281, 0.9220343828201294, -0.014693252742290497, 0.3868309259414673, 0.09193844348192215, 0.9789998531341553, -0.18195515871047974, -0.37603312730789185, 0.20333357155323029, 0.9040212631225586, 0.04309884458780289
1795905, 8.239999771118164, 97.52300262451172, -21.339191436767578, -29.024938583374023, -20.099708557128906, -22.489608764648438, -21.548877716064453, -0.38117900490760803, 199.3157958984375, 143.7230224609375, -48.051055908203125, 12.438209533691406, -1.359222412109375, 0.10152053833007812, 0.9826951622962952, -0.07415012270212173, 0.1697453111410141, 0.07102388143539429, 0.9971761703491211, 0.02442304790019989, -0.17107637226581573, -0.011944100260734558, 0.9851853847503662, 0.0
1795915, 8.239999771118164, 97.48999786376953, -20.391633987426758, -29.618358612060547, -20.697914123535156, -22.423635482788086, -21.419374465942383, -0.41538798809051514, 200.61187744140625, 141.46302795410156, -48.605369567871094, 13.242941856384277, -2.4033203125, 0.12520217895507812, 0.9947109222412109, -0.08224667608737946, -0.06153985857963562, 0.09426917880773544, 0.9688892960548401, 0.22884085774421692, 0.04080420732498169, -0.23343117535114288, 0.9715167880058289, 0.0
1795925, 8.239999771118164, 97.48500061035156, -20.67877197265625, -29.6279296875, -21.037696838378906, -22.240375518798828, -21.22633934020996, -0.4398219883441925, 201.63380432128906, 135.9718017578125, -51.065093994140625, 15.492854118347168, -0.4654693603515625, 0.25041961669921875, 0.957978367805481, -0.03916395455598831, -0.28415679931640625, 0.15862511098384857, 0.8977080583572388, 0.411047101020813, 0.2389916479587555, -0.43884772062301636, 0.8661960959434509, 0.0
1795935, 8.25, 97.46600341796875, -20.482561111450195, -29.020151138305664, -23.196022033691406, -22.164628982543945, -21.162809371948242, -0.4251619875431061, 202.7654266357422, 132.5687255859375, -51.80702590942383, 16.803295135498047, -1.309234619140625, -0.20981216430664062, 0.8765509724617004, 0.04999668151140213, -0.47870686650276184, 0.2581191658973694, 0.7906417846679688, 0.5552129745483398, 0.4062442481517792, -0.6102347373962402, 0.680131733417511, 0.0
1795945, 8.25, 97.46600341796875, -19.884355545043945, -29.158935546875, -22.817955017089844, -22.022907257080078, -21.067514419555664, -0.4618139863014221, 203.53579711914062, 124.96232604980469, -54.677738189697266, 19.998863220214844, -0.756591796875, 0.5685081481933594, 0.7585515379905701, 0.1765633076429367, -0.6272372603416443, 0.3825569152832031, 0.6585664749145508, 0.6480292081832886, 0.527495265007019, -0.7315161228179932, 0.4320104718208313, 0.0
1795955, 8.25, 97.4540023803711, -20.539989471435547, -28.307090759277344, -20.147565841674805, -21.800554275512695, -21.0479679107666, -0.48380500078201294, 204.31298828125, 118.39187622070312, -57.25254821777344, 22.71242332458496, -1.8541412353515625, 0.3248558044433594, 0.614626407623291, 0.32766497135162354, -0.7175455689430237, 0.5207341313362122, 0.5147305130958557, 0.6810947060585022, 0.5925130248069763, -0.7922677993774414, 0.14574047923088074, 0.0
1795965, 8.239999771118164, 97.43199920654297, -19.793428421020508, -28.9244384765625, -20.425132751464844, -21.783449172973633, -20.967334747314453, -0.5277870297431946, 205.3467559814453, 115.93067169189453, -58.01271438598633, 23.563949584960938, -1.575653076171875, 0.13875198364257812, 0.4582693576812744, 0.4906536936759949, -0.7411139011383057, 0.6594610214233398, 0.37133610248565674, 0.6536223292350769, 0.5959041118621826, -0.7882693409919739, -0.15339483320713043, 0.0
1795975, 8.239999771118164, 97.4229965209961, -19.707286834716797, -28.919652938842773, -21.195621490478516, -21.785892486572266, -20.913576126098633, -0.5253430008888245, 206.2693328857422, 112.35177612304688, -59.29923629760742, 24.914772033691406, -0.4940338134765625, 0.09136199951171875, 0.3037210702896118, 0.6504738926887512, -0.696160078048706, 0.7866764068603516, 0.2409912496805191, 0.568388044834137, 0.537489652633667, -0.7202827334403992, -0.4385177493095398, 0.0
1795985, 8.239999771118164, 97.4229965209961, -19.712072372436523, -29.029722213745117, -21.26262092590332, -21.71747589111328, -20.840274810791016, -0.5228999853134155, 206.8917236328125, 105.37004852294922, -62.255069732666016, 27.789392471313477, -0.7844085693359375, 0.064300537109375, 0.16506771743297577, 0.7921988368034363, -0.5875161290168762, 0.8909247517585754, 0.13576963543891907, 0.4333834946155548, 0.4230925142765045, -0.5949690341949463, -0.6833774447441101, 0.0
1795995, 8.239999771118164, 97.4229965209961, -19.286149978637695, -27.909881591796875, -20.89891242980957, -21.517112731933594, -20.727874755859375, -0.535116970539093, 207.2794647216797, 96.24690246582031, -65.00474548339844, 31.632083892822266, -1.671142578125, -0.08121490478515625, 0.054541654884815216, 0.9027531147003174, -0.426689088344574, 0.9629822969436646, 0.06542186439037323, 0.2615082859992981, 0.26399222016334534, -0.4251560568809509, -0.8657658696174622, 0.0
1796005, 8.239999771118164, 97.4000015258789, -19.520645141601562, -27.89073944091797, -19.99442481994629, -21.404712677001953, -20.67656135559082, -0.5571079850196838, 208.04525756835938, 93.11637878417969, -66.27132415771484, 32.74638366699219, -2.2235565185546875, 1.093017578125, -0.018951214849948883, 0.9734663367271423, -0.22804774343967438, 0.9970507025718689, 0.03536823391914368, 0.06812059879302979, 0.07437902688980103, -0.2260834127664566, -0.9712642431259155, 0.0
1796015, 8.229999542236328, 97.34300231933594, -18.046667098999023, -28.752155303955078, -19.736000061035156, -21.42426109313965, -20.581266403198242, -0.5644389986991882, 209.93946838378906, 104.84671020507812, -60.26599884033203, 27.17420768737793, -0.648834228515625, -0.15227508544921875, -0.04905027523636818, 0.9987642765045166, -0.008100241422653198, 0.9904907941818237, 0.04759674146771431, -0.1290888488292694, -0.12854325771331787, -0.01435457170009613, -0.9916000962257385, 0.0
1796025, 8.239999771118164, 97.2979965209961, -17.434104919433594, -28.733013153076172, -20.338991165161133, -21.421817779541016, -20.551944732666016, -0.5082389712333679, 212.4414825439453, 122.92373657226562, -51.41747283935547, 18.772357940673828, 3.241729736328125, 0.4331512451171875, -0.032821446657180786, 0.9763789772987366, 0.21356143057346344, 0.9442664384841919, 0.10031859576702118, -0.31352588534355164, -0.3275434970855713, 0.1913687139749527, -0.92525315284729, 0.0
1796035, 8.239999771118164, 97.26399993896484, -17.611173629760742, -28.85265350341797, -20.061424255371094, -21.299644470214844, -20.551944732666016, -0.4471530020236969, 215.14578247070312, 141.3594512939453, -43.09404373168945, 10.239130973815918, 4.88616943359375, 0.44667816162109375, 0.028178559616208076, 0.9087724089622498, 0.4163416028022766, 0.8624963760375977, 0.18843141198158264, -0.4696754813194275, -0.5052789449691772, 0.37232786417007446, -0.7785019874572754, 0.006724599748849869
1796045, 8.239999771118164, 97.23899841308594, -18.692729949951172, -28.26880645751953, -19.812570571899414, -21.24100112915039, -20.43465805053711, -0.3933970034122467, 217.7733154296875, 156.52432250976562, -36.42045211791992, 3.2136025428771973, 4.95684814453125, -0.20979690551757812, 0.12773984670639038, 0.8021023869514465, 0.5833660364151001, 0.7530858516693115, 0.304310142993927, -0.5833168625831604, -0.6454027891159058, 0.5138372778892517, -0.5651784539222717, 0.09078370034694672
1796055, 8.239999771118164, 97.21600341796875, -18.118452072143555, -27.555744171142578, -19.826927185058594, -21.12127113342285, -20.380903244018555, -0.3640750050544739, 220.28436279296875, 168.3128662109375, -30.053234100341797, -2.243330478668213, 4.079498291015625, -0.35193634033203125, 0.256863534450531, 0.6662455797195435, 0.7000997066497803, 0.6254793405532837, 0.43763023614883423, -0.6459542512893677, -0.7367475628852844, 0.6038195490837097, -0.30431097745895386, 0.15757475793361664
1796065, 8.239999771118164, 97.2030029296875, -18.778871536254883, -27.110679626464844, -18.711872100830078, -20.996654510498047, -20.349138259887695, -0.39583998918533325, 222.44190979003906, 174.11569213867188, -27.45587158203125, -4.9929609298706055, 3.1788787841796875, 0.9102859497070312, 0.4039304256439209, 0.5134361982345581, 0.7571162581443787, 0.49026739597320557, 0.5772407054901123, -0.6530179977416992, -0.772320032119751, 0.6349627375602722, -0.01855573058128357, 0.19238799810409546
1796075, 8.229999542236328, 97.19300079345703, -18.43430519104004, -26.76611328125, -18.960725784301758, -20.996654510498047, -20.226964950561523, -0.4178310036659241, 224.24281311035156, 174.62496948242188, -26.622983932495117, -5.338560104370117, 1.59649658203125, -0.1522674560546875, 0.5558291673660278, 0.35592544078826904, 0.7512473464012146, 0.35952022671699524, 0.7118967175483704, -0.6032823920249939, -0.7495327591896057, 0.605410099029541, 0.2677304148674011, 0.19848935306072235
1796085, 8.210000038146973, 97.16300201416016, -17.816957473754883, -26.646472930908203, -18.702301025390625, -20.920907974243164, -20.197643280029297, -0.45692700147628784, 226.23475646972656, 177.5267333984375, -24.68355369567871, -6.756865978240967, 0.2050323486328125, 0.4872894287109375, 0.7004680037498474, 0.2076982855796814, 0.682793915271759, 0.2434779703617096, 0.8297746181488037, -0.5021890997886658, -0.6708676815032959, 0.518012285232544, 0.5306601524353027, 0.21783073246479034
1796095, 8.229999542236328, 97.1510009765625, -18.17109489440918, -26.78046989440918, -17.831314086914062, -20.896472930908203, -20.15854835510254, -0.4789179861545563, 227.94677734375, 176.48468017578125, -25.381540298461914, -6.404036045074463, 0.82867431640625, 0.5211257934570312, 0.8258088231086731, 0.08076563477516174, 0.5581381916999817, 0.1518884003162384, 0.9212685823440552, -0.35804393887519836, -0.5431117415428162, 0.3804502785205841, 0.7485235929489136, 0.2155018001794815
1796105, 8.220000267028809, 97.13400268554688, -18.027524948120117, -26.904897689819336, -18.03709602355957, -20.930681228637695, -20.053478240966797, -0.46914398670196533, 229.54867553710938, 174.15733337402344, -26.301591873168945, -5.470452308654785, -0.2080078125, -0.3451576232910156, 0.9213023781776428, -0.014913231134414673, 0.3885626494884491, 0.09279461205005646, 0.9788264036178589, -0.182453915476799, -0.37761348485946655, 0.20415166020393372, 0.9031779766082764, 0.2060043066740036
1796115, 8.220000267028809, 97.11299896240234, -17.534603118896484, -26.761327743530273, -18.75494384765625, -20.952672958374023, -19.987506866455078, -0.4349350035190582, 231.16554260253906, 172.31182861328125, -26.57054328918457, -4.751430034637451, -0.542388916015625, 0.013532638549804688, 0.9795533418655396, -0.07160068303346634, 0.18801580369472504, 0.07106389850378036, 0.9974263310432434, 0.009601250290870667, -0.18821866810321808, 0.00395636260509491, 0.9821193218231201, 0.199087992310524
1796125, 8.239999771118164, 97.09700012207031, -17.290536880493164, -26.727828979492188, -18.113666534423828, -20.854934692382812, -20.016826629638672, -0.4007270038127899, 232.67056274414062, 169.2661590576172, -27.62856674194336, -3.497142791748047, -0.4139404296875, 0.4500713348388672, 0.9960444569587708, -0.0844668298959732, -0.027607157826423645, 0.08830185979604721, 0.9756504893302917, 0.2007744312286377, 0.009976610541343689, -0.20241758227348328, 0.9792486429214478, 0.18537583947181702
1796135, 8.229999542236328, 97.07499694824219, -16.950754165649414, -27.010181427001953, -18.4630184173584, -20.79629135131836, -19.8946533203125, -0.32986700534820557, 234.2341766357422, 167.35272216796875, -28.32550048828125, -2.759596109390259, -0.7271728515625, 0.19626426696777344, 0.9695491194725037, -0.05327944457530975, -0.23903384804725647, 0.1429392397403717, 0.9156591296195984, 0.37568366527557373, 0.19885754585266113, -0.3984104096889496, 0.895391047000885, 0.17785845696926117
1796145, 8.239999771118164, 97.07099914550781, -16.56311798095703, -26.612972259521484, -19.13300895690918, -20.75475311279297, -19.8946533203125, -0.2956579923629761, 235.41604614257812, 160.78236389160156, -30.608858108520508, 0.07872819900512695, -0.4282379150390625, 0.04061317443847656, 0.9025276303291321, 0.019454019144177437, -0.4301939606666565, 0.23012110590934753, 0.8225952982902527, 0.5199834108352661, 0.36399132013320923, -0.5682951807975769, 0.7379371523857117, 0.1441623568534851
1796155, 8.210000038146973, 97.0459976196289, -16.9124698638916, -26.732614517211914, -18.161523818969727, -20.617919921875, -19.904428482055664, -0.2712239921092987, 236.80491638183594, 157.6879119873047, -32.19071578979492, 1.3289580345153809, -1.644561767578125, 0.5549678802490234, 0.800464928150177, 0.12725836038589478, -0.5857154726982117, 0.3424587845802307, 0.7048897743225098, 0.6211713552474976, 0.49191391468048096, -0.6978082060813904, 0.520658016204834, 0.12970738112926483
1796165, 8.239999771118164, 97.02999877929688, -16.764114379882812, -26.50290298461914, -18.142379760742188, -20.600814819335938, -19.882436752319336, -0.2712239921092987, 238.14459228515625, 154.3445281982422, -33.287437438964844, 2.6930103302001953, -0.7293701171875, -0.33162879943847656, 0.6718834042549133, 0.26190340518951416, -0.6928064227104187, 0.4702581763267517, 0.5718178749084473, 0.6722224354743958, 0.5722160935401917, -0.7774518132209778, 0.26103222370147705, 0.11371036618947983
1796175, 8.220000267028809, 97.02300262451172, -16.118053436279297, -26.94318199157715, -19.008581161499023, -20.564163208007812, -19.85311508178711, -0.25900599360466003, 239.23373413085938, 148.20684814453125, -35.7570686340332, 5.308149337768555, -0.79034423828125, 0.2673320770263672, 0.5274229645729065, 0.4121451675891876, -0.7429420351982117, 0.6030850410461426, 0.4343164563179016, 0.6690732836723328, 0.5984268188476562, -0.8009405732154846, -0.01949024200439453, 0.0818331241607666
1796185, 8.220000267028809, 97.01200103759766, -15.960125923156738, -26.737398147583008, -19.28136444091797, -20.476198196411133, -19.889768600463867, -0.24190199375152588, 240.2205352783203, 141.5206298828125, -38.352481842041016, 8.160747528076172, -1.518402099609375, 0.1455097198486328, 0.37837284803390503, 0.5654217004776001, -0.7328940629959106, 0.7304939031600952, 0.3038882911205292, 0.6115815043449402, 0.5685189366340637, -0.7667793035507202, -0.2980538010597229, 0.046639278531074524
1796195, 8.229999542236328, 96.98799896240234, -16.92682647705078, -25.49791717529297, -18.381662368774414, -20.41022491455078, -19.870220184326172, -0.2443459928035736, 241.44371032714844, 138.6990966796875, -39.25990676879883, 9.26105785369873, -1.655426025390625, 0.2571868896484375, 0.2370520681142807, 0.7096871137619019, -0.6634395122528076, 0.8416509628295898, 0.1910513937473297, 0.5050984025001526, 0.48521238565444946, -0.6781179904937744, -0.5520192384719849, 0.03302612528204918
1796205, 8.229999542236328, 96.96900177001953, -15.39542007446289, -27.211177825927734, -14.945569038391113, -20.439546585083008, -19.897098541259766, -0.344527006149292, 242.74354553222656, 137.21401977539062, -39.878353118896484, 9.750916481018066, -0.637725830078125, 0.1928863525390625, 0.11379319429397583, 0.834129273891449, -0.539704442024231, 0.9276677370071411, 0.10525444149971008, 0.3582674264907837, 0.3556472957134247, -0.5414338111877441, -0.7618167996406555, 0.02687016688287258
1796215, 8.220000267028809, 96.95099639892578, -14.256437301635742, -28.106094360351562, -13.562518119812012, -20.573936462402344, -19.92397689819336, -0.28588399291038513, 244.089111328125, 136.5000457763672, -39.85020446777344, 9.895353317260742, -0.2857666015625, -0.1285858154296875, 0.019907861948013306, 0.9286246299743652, -0.3704881966114044, 0.981757402420044, 0.05192853510379791, 0.1829133927822113, 0.1890966147184372, -0.3673701286315918, -0.9106492400169373, 0.02502249926328659
1796225, 8.220000267028809, 96.93499755859375, -13.883155822753906, -28.264020919799805, -14.136795043945312, -20.784074783325195, -19.970401763916016, -0.13683299720287323, 245.4058380126953, 135.508056640625, -39.967342376708984, 10.16476821899414, -0.0824432373046875, 0.17258453369140625, -0.035642579197883606, 0.9850420951843262, -0.16859203577041626, 0.9993644952774048, 0.034908782690763474, -0.007312804460525513, -0.0013180375099182129, -0.16874495148658752, -0.9856590628623962, 0.02157220058143139
1796235, 8.220000267028809, 96.91999816894531, -14.031511306762695, -28.18266487121582, -15.376277923583984, -20.84516143798828, -19.985061645507812, 0.02932099997997284, 246.68406677246094, 134.14837646484375, -40.44615173339844, 10.596199989318848, -0.155242919921875, 0.15227699279785156, -0.047493983060121536, 0.9977211952209473, 0.04793959856033325, 0.9788137078285217, 0.05605598911643028, -0.196933776140213, -0.1991720199584961, 0.03757108747959137, -0.9792442917823792, 0.01599464751780033
1796245, 8.220000267028809, 96.91100311279297, -14.58664608001709, -27.1872501373291, -17.405391693115234, -20.818281173706055, -19.97528839111328, 0.1685979962348938, 247.7906036376953, 130.75692749023438, -41.484012603759766, 11.94538688659668, -0.2511138916015625, -0.0473785400390625, -0.01482965424656868, 0.9654818773269653, 0.2600507438182831, 0.9218670725822449, 0.11392156034708023, -0.3703841269016266, -0.387224018573761, 0.2342396080493927, -0.8917341828346252, 0.0
1796255, 8.220000267028809, 96.88500213623047, -15.32363510131836, -26.3449764251709, -17.19003677368164, -20.686336517333984, -20.002166748046875, 0.21258099377155304, 249.17225646972656, 131.31871032714844, -40.97105026245117, 11.50687313079834, -0.7813262939453125, 0.3113250732421875, 0.05861961096525192, 0.8915547132492065, 0.44910526275634766, 0.833084762096405, 0.20418411493301392, -0.5140817761421204, -0.5500314235687256, 0.40427786111831665, -0.7307704091072083, 0.004031114745885134
1796265, 8.220000267028809, 96.88500213623047, -16.319049835205078, -24.9140682220459, -16.29033660888672, -20.46642303466797, -19.989948272705078, 0.16615499556064606, 250.14599609375, 126.58201599121094, -42.61543273925781, 13.459193229675293, 0.255462646484375, 0.0744476318359375, 0.16557852923870087, 0.7833281755447388, 0.5991513133049011, 0.7196816205978394, 0.3194032311439514, -0.6164749264717102, -0.6742720603942871, 0.5332728624343872, -0.5108597874641418, 0.0
1796275, 8.210000038146973, 96.85399627685547, -16.878969192504883, -23.578872680664062, -14.457433700561523, -20.33692169189453, -19.872663497924805, -0.07818999886512756, 251.5530548095703, 127.9944839477539, -41.24772644042969, 12.639693260192871, -1.1318359375, 0.3079395294189453, 0.29504483938217163, 0.650482714176178, 0.6998730301856995, 0.5907381176948547, 0.45152390003204346, -0.6686972379684448, -0.7509843111038208, 0.6107368469238281, -0.2510446608066559, 0.0
1796285, 8.220000267028809, 96.83399963378906, -15.725629806518555, -24.78006935119629, -12.902098655700684, -20.33936309814453, -19.806690216064453, -0.20769399404525757, 253.02688598632812, 130.09503173828125, -40.14984893798828, 11.507976531982422, 0.4809417724609375, 0.5482063293457031, 0.4379756450653076, 0.5032811760902405, 0.7449073195457458, 0.45644280314445496, 0.5893670916557312, -0.6665641665458679, -0.7744919061660767, 0.6319458484649658, 0.028409525752067566, 0.00307830679230392
1796295, 8.229999542236328, 96.8239974975586, -14.47657585144043, -25.229921340942383, -13.663017272949219, -20.503076553344727, -19.71628189086914, -0.21746699512004852, 254.3241729736328, 129.67247009277344, -39.60260009765625, 11.525847434997559, 0.6573486328125, -0.03383827209472656, 0.5836869478225708, 0.35194653272628784, 0.7317408323287964, 0.32832157611846924, 0.7219281196594238, -0.6091191172599792, -0.7426405549049377, 0.595780611038208, 0.30582815408706665, 0.002693693619221449
1796305, 8.229999542236328, 96.81099700927734, -13.323236465454102, -26.172693252563477, -14.0171537399292, -20.622806549072266, -19.74071502685547, -0.15149399638175964, 255.54037475585938, 128.26930236816406, -39.90926742553711, 11.98141098022461, -0.0055084228515625, 0.5651206970214844, 0.7216653823852539, 0.2083948850631714, 0.6601303815841675, 0.21671192348003387, 0.8376646041870117, -0.5013535618782043, -0.6574463248252869, 0.5048671364784241, 0.5593513250350952, 0.0
1796315, 8.220000267028809, 96.78900146484375, -14.055438995361328, -25.81855583190918, -14.758929252624512, -20.61058807373047, -19.67474365234375, -0.007329999934881926, 256.9198303222656, 129.1366424560547, -39.602561950683594, 11.407370567321777, -0.2634429931640625, 0.1488971710205078, 0.8401685357093811, 0.08433736860752106, 0.5357288718223572, 0.13199719786643982, 0.9263288974761963, -0.35283562541007996, -0.526017427444458, 0.3671558201313019, 0.767139196395874, 0.0036525193136185408
1796325, 8.239999771118164, 96.81199645996094, -14.878569602966309, -24.45464515686035, -15.878769874572754, -20.525066375732422, -19.61365509033203, 0.09285099804401398, 257.3398742675781, 117.59195709228516, -44.24431610107422, 16.43151092529297, 0.331268310546875, -0.267333984375, 0.9295413494110107, -0.00995335727930069, 0.368585467338562, 0.08057708293199539, 0.9809582233428955, -0.1767190843820572, -0.3598073124885559, 0.19396717846393585, 0.9126421213150024, 0.0
1796335, 8.210000038146973, 96.80699920654297, -15.352349281311035, -23.39223289489746, -15.850055694580078, -20.41022491455078, -19.569673538208008, 0.10262499749660492, 257.67230224609375, 106.36030578613281, -48.6909294128418, 21.294349670410156, -2.916229248046875, 0.3823890686035156, 0.9828073978424072, -0.06652279198169708, 0.1722375452518463, 0.06539124250411987, 0.9977853298187256, 0.012240663170814514, -0.1726699024438858, -0.0007672011852264404, 0.9849795699119568, 0.0
1796345, 8.210000038146973, 96.80500030517578, -15.68734359741211, -23.339590072631836, -15.036497116088867, -20.15121841430664, -19.48171043395996, -0.026877999305725098, 257.8720397949219, 94.82611846923828, -53.86043930053711, 26.264211654663086, -2.82220458984375, 0.4162254333496094, 0.9961167573928833, -0.08000099658966064, -0.03677898645401001, 0.08572567254304886, 0.9765064120292664, 0.19770659506320953, 0.020098432898521423, -0.20009131729602814, 0.9795712232589722, 0.0
1796355, 8.210000038146973, 96.75399780273438, -16.11326789855957, -22.87059783935547, -14.11286735534668, -20.082801818847656, -19.39130210876465, -0.08063399791717529, 259.17242431640625, 98.83756256103516, -51.78227615356445, 24.21650505065918, -2.88970947265625, -0.1996479034423828, 0.9689553380012512, -0.05103112757205963, -0.2419148087501526, 0.14013583958148956, 0.9194717407226562, 0.36733540892601013, 0.20368826389312744, -0.3898318409919739, 0.8980770707130432, 0.0
1796365, 8.229999542236328, 96.7239990234375, -15.964912414550781, -22.640886306762695, -12.868598937988281, -20.055923461914062, -19.293563842773438, -0.1490509957075119, 260.83184814453125, 106.9587631225586, -47.63014221191406, 20.331703186035156, 1.190185546875, 0.030454635620117188, 0.9039713144302368, 0.01792670227587223, -0.42721879482269287, 0.22393816709518433, 0.831296443939209, 0.5087235569953918, 0.36426490545272827, -0.5555411577224731, 0.7474524974822998, 0.0
1796375, 8.210000038146973, 96.7239990234375, -15.050853729248047, -22.750957489013672, -13.02652645111084, -20.075471878051758, -19.22270393371582, -0.1832589954137802, 262.0537414550781, 108.46627807617188, -46.17708206176758, 19.447147369384766, 2.259765625, 0.267333984375, 0.8064723014831543, 0.12115952372550964, -0.5787263512611389, 0.3309577703475952, 0.7185858488082886, 0.611639678478241, 0.48996996879577637, -0.684803307056427, 0.5394200086593628, 0.0
1796385, 8.210000038146973, 96.73500061035156, -14.802000045776367, -23.14337921142578, -13.801799774169922, -20.109678268432617, -19.139625549316406, -0.175928995013237, 262.6553649902344, 101.83943176269531, -49.05224609375, 22.22079086303711, 0.5189208984375, 0.5685062408447266, 0.684370756149292, 0.25038108229637146, -0.6847974061965942, 0.453176885843277, 0.5896919965744019, 0.668502688407898, 0.5711992383003235, -0.7678367495536804, 0.29010048508644104, 0.0
1796395, 8.220000267028809, 96.73200225830078, -14.955141067504883, -23.109880447387695, -14.423933982849121, -20.09501838684082, -19.058990478515625, -0.13683299720287323, 263.1067199707031, 94.10826873779297, -52.394893646240234, 25.478839874267578, -1.612640380859375, -0.10151863098144531, 0.5474128723144531, 0.3951161503791809, -0.7377152442932129, 0.5813769698143005, 0.454521119594574, 0.6748430728912354, 0.6019478440284729, -0.7983071208000183, 0.01909920573234558, 0.0
1796405, 8.210000038146973, 96.71800231933594, -14.787643432617188, -23.253450393676758, -14.227723121643066, -20.060810089111328, -18.978357315063477, -0.09285099804401398, 263.7044982910156, 89.21533966064453, -54.34487533569336, 27.445743560791016, -1.89398193359375, -0.08459854125976562, 0.40634095668792725, 0.5441681146621704, -0.7340091466903687, 0.7057404518127441, 0.3233233690261841, 0.6303921341896057, 0.5803609490394592, -0.7741727828979492, -0.2526616156101227, 0.0
1796415, 8.210000038146973, 96.70099639892578, -15.127424240112305, -22.047466278076172, -14.232507705688477, -19.90198516845703, -18.912382125854492, -0.012217000126838684, 264.50537109375, 87.53624725341797, -54.2526741027832, 27.96603775024414, -1.142822265625, 0.0169219970703125, 0.27206140756607056, 0.6853916049003601, -0.6754422187805176, 0.8170048594474792, 0.20633235573768616, 0.538453221321106, 0.5084162950515747, -0.6983307600021362, -0.5038325786590576, 0.0
1796425, 8.229999542236328, 96.64900207519531, -15.32363510131836, -21.339191436767578, -13.921441078186035, -19.782255172729492, -18.86840057373047, -0.03176400065422058, 266.3133239746094, 98.98869323730469, -48.496543884277344, 22.57199478149414, -0.29705810546875, 0.6124973297119141, 0.15379375219345093, 0.8091671466827393, -0.5670953989028931, 0.9067139625549316, 0.1125282421708107, 0.4064592123031616, 0.3927072286605835, -0.5767032504081726, -0.7163760662078857, 0.0
1796435, 8.199999809265137, 96.61599731445312, -16.371692657470703, -21.028125762939453, -14.414362907409668, -19.728498458862305, -18.80487060546875, -0.06352899968624115, 268.4606018066406, 113.37736511230469, -42.31471252441406, 15.869033813476562, 3.137603759765625, 0.36208534240722656, 0.06008903682231903, 0.9069384932518005, -0.41695696115493774, 0.9683295488357544, 0.048449449241161346, 0.24493345618247986, 0.24234063923358917, -0.41846877336502075, -0.875302791595459, 0.0
1796445, 8.210000038146973, 96.61399841308594, -17.74517250061035, -19.908283233642578, -14.763714790344238, -19.689403533935547, -18.726680755615234, -0.10506799817085266, 270.1213684082031, 119.73973083496094, -39.43696594238281, 12.811934471130371, 3.890594482421875, -0.5211315155029297, -0.0024789944291114807, 0.9716918468475342, -0.23624137043952942, 0.9976298213005066, 0.018651295453310013, 0.06624695658683777, 0.06877781450748444, -0.2355167120695114, -0.9694336652755737, 0.0
1796455, 8.199999809265137, 96.60299682617188, -17.60160255432129, -19.29572105407715, -14.136795043945312, -19.652751922607422, -18.734010696411133, -0.21991099417209625, 271.6042785644531, 123.03253173828125, -37.25049591064453, 11.16012954711914, 1.774932861328125, -0.179351806640625, -0.03054160624742508, 0.9988021850585938, -0.03824339807033539, 0.9927883148193359, 0.025875424966216087, -0.11706198006868362, -0.11593195796012878, -0.041542649269104004, -0.9923880696296692, 0.0
1796465, 8.199999809265137, 96.58300018310547, -17.405391693115234, -19.491931915283203, -14.098509788513184, -19.70650863647461, -18.653377532958984, -0.3591879904270172, 273.1481018066406, 126.70431518554688, -35.429996490478516, 9.339631080627441, 0.9644775390625, 0.5346641540527344, -0.02235523611307144, 0.986276388168335, 0.16358549892902374, 0.954352855682373, 0.06980013847351074, -0.29041391611099243, -0.2978461980819702, 0.1496259570121765, -0.942814826965332, 0.014995664358139038
1796475, 8.210000038146973, 96.56199645996094, -16.95553970336914, -19.984853744506836, -13.777872085571289, -19.633203506469727, -18.50432586669922, -0.4593699872493744, 274.7629089355469, 130.83274841308594, -33.442138671875, 7.321321487426758, 1.057891845703125, 0.0, 0.021372903138399124, 0.935187816619873, 0.3535081744194031, 0.8857755661010742, 0.14625664055347443, -0.4404681921005249, -0.46362268924713135, 0.3225427269935608, -0.8252395987510681, 0.04176390916109085
1796485, 8.199999809265137, 96.5270004272461, -14.428720474243164, -22.277177810668945, -13.782657623291016, -19.662525177001953, -18.33572769165039, -0.4398219883441925, 276.7765808105469, 139.56585693359375, -29.19712257385254, 3.242116928100586, 1.172576904296875, -0.030452728271484375, 0.09795808047056198, 0.849124014377594, 0.5190315246582031, 0.7929044961929321, 0.24858950078487396, -0.5563337802886963, -0.6014212369918823, 0.46603941917419434, -0.6489221453666687, 0.09645457565784454
1796495, 8.199999809265137, 96.50599670410156, -14.754143714904785, -21.616758346557617, -15.328420639038086, -19.64542007446289, -18.267309188842773, -0.3200930058956146, 278.7533264160156, 146.7448272705078, -25.600791931152344, -0.11733841896057129, 2.371856689453125, 0.16581153869628906, 0.20270724594593048, 0.7342566251754761, 0.6479028463363647, 0.6827380657196045, 0.3683333396911621, -0.6310316324234009, -0.7019823789596558, 0.57026207447052, -0.4266405701637268, 0.14226405322551727
1796505, 8.210000038146973, 96.50900268554688, -15.778271675109863, -20.487346649169922, -16.95553970336914, -19.52080535888672, -18.211109161376953, -0.19791999459266663, 280.123779296875, 145.261474609375, -26.079933166503906, 0.4362448453903198, 1.9542236328125, 0.2368755340576172, 0.32770392298698425, 0.5994231700897217, 0.7302761077880859, 0.5635144710540771, 0.4964052736759186, -0.6603293418884277, -0.7583285570144653, 0.6279130578041077, -0.17510946094989777, 0.13596343994140625
1796515, 8.210000038146973, 96.50700378417969, -15.203993797302246, -20.683557510375977, -16.85504150390625, -19.266685485839844, -18.11092758178711, -0.23945899307727814, 281.1241760253906, 139.2181396484375, -28.419517517089844, 3.0431628227233887, -0.321044921875, 0.07444190979003906, 0.46231597661972046, 0.4558699429035187, 0.7605574727058411, 0.4433305859565735, 0.6239932179450989, -0.6434998512268066, -0.7679339647293091, 0.6346780061721802, 0.08638086915016174, 0.10193157196044922
1796525, 8.210000038146973, 96.5, -15.108281135559082, -20.305492401123047, -17.692529678344727, -19.06387710571289, -18.081607818603516, -0.2785539925098419, 281.95037841796875, 131.6938934326172, -31.348522186279297, 6.3071794509887695, -1.5125732421875, 0.267333984375, 0.5975855588912964, 0.3136483430862427, 0.7379142045974731, 0.32983866333961487, 0.7426764965057373, -0.5827861428260803, -0.7308205366134644, 0.5916565656661987, 0.34035903215408325, 0.058693986386060715
1796535, 8.220000267028809, 96.48500061035156, -16.165908813476562, -19.180864334106445, -16.1850528717041, -18.848852157592773, -18.06938934326172, -0.32742300629615784, 282.8406982421875, 125.92921447753906, -33.75564193725586, 8.761682510375977, -1.893829345703125, 0.33501243591308594, 0.7243065237998962, 0.18282786011695862, 0.6647970676422119, 0.23030486702919006, 0.8446680307388306, -0.4832155108451843, -0.6498772501945496, 0.503101646900177, 0.5696917772293091, 0.025898607447743416
1796545, 8.199999809265137, 96.4739990234375, -16.630117416381836, -19.094724655151367, -15.055639266967773, -18.76333236694336, -17.8543643951416, -0.510683000087738, 283.6905517578125, 120.36248779296875, -36.37287139892578, 11.111573219299316, -1.4259033203125, 0.047382354736328125, 0.8326908349990845, 0.07227209955453873, 0.5490025877952576, 0.15086981654167175, 0.924328088760376, -0.35051047801971436, -0.5327898859977722, 0.3746944069862366, 0.758774995803833, 0.0
1796555, 8.199999809265137, 96.45800018310547, -14.926426887512207, -19.066009521484375, -13.6295166015625, -18.682697296142578, -17.825042724609375, -0.6401860117912292, 284.6344909667969, 116.69192504882812, -36.65460205078125, 12.618302345275879, -1.367828369140625, -0.2673377990722656, 0.9174054861068726, -0.01106453686952591, 0.3978012800216675, 0.0959179699420929, 0.9762918949127197, -0.194050595164299, -0.3862224519252777, 0.21617917716503143, 0.8967157602310181, 0.0
1796565, 8.210000038146973, 96.43000030517578, -14.457433700561523, -20.056638717651367, -12.868598937988281, -18.77310562133789, -17.86902618408203, -0.681725025177002, 285.95599365234375, 118.33101654052734, -36.11515808105469, 11.710006713867188, -0.864990234375, 1.2250003814697266, 0.9732779860496521, -0.06299977749586105, 0.22082163393497467, 0.0696793720126152, 0.9973146319389343, -0.022583380341529846, -0.2188054919242859, 0.03736667335033417, 0.9750529527664185, 0.0
1796575, 8.210000038146973, 96.4020004272461, -14.758929252624512, -20.630916595458984, -13.993226051330566, -18.90260887145996, -17.70775604248047, -0.5986469984054565, 287.5727844238281, 123.55195617675781, -34.21250534057617, 9.188087463378906, 0.524627685546875, -0.3688526153564453, 0.9962056875228882, -0.08107872307300568, 0.031651079654693604, 0.07533426582813263, 0.9853519201278687, 0.15299713611602783, -0.04359206557273865, -0.1500319093465805, 0.9877199530601501, 0.01930396817624569
1796585, 8.210000038146973, 96.40599822998047, -14.203794479370117, -19.14736557006836, -15.768699645996094, -18.846410751342773, -17.607574462890625, -0.4935790002346039, 288.6465148925781, 121.1565933227539, -33.716590881347656, 10.13373851776123, 1.46014404296875, -0.6192665100097656, 0.9854025840759277, -0.06421993672847748, -0.15766729414463043, 0.11236745119094849, 0.9410809874534607, 0.31897008419036865, 0.12789343297481537, -0.3320300579071045, 0.9345586895942688, 0.006643236149102449
1796595, 8.199999809265137, 96.37799835205078, -13.744373321533203, -20.013568878173828, -15.347563743591309, -18.64849090576172, -17.61246109008789, -0.48380500078201294, 290.06341552734375, 123.47396850585938, -32.8050422668457, 8.934550285339355, -0.537078857421875, 1.441568374633789, 0.9418748617172241, -0.013264117762446404, -0.33570408821105957, 0.17725856602191925, 0.8684453964233398, 0.46301597356796265, 0.285398930311203, -0.49560874700546265, 0.8203170299530029, 0.022838978096842766
1796605, 8.1899995803833, 96.36599731445312, -14.007582664489746, -20.439489364624023, -15.089138984680176, -18.60206413269043, -17.52938461303711, -0.4398219883441925, 291.3630065917969, 123.99852752685547, -32.90129852294922, 8.5435209274292, 0.694366455078125, -0.2876396179199219, 0.8689149618148804, 0.06800559163093567, -0.4902687072753906, 0.2653883397579193, 0.7720885276794434, 0.5774514675140381, 0.4178003668785095, -0.6318668127059937, 0.6528305411338806, 0.02810152806341648
