Year,Month,Day,Time,Flight_Time_(s),Sync,Gyro_X,Gyro_Y,Gyro_Z,Accel_X,Accel_Y,Accel_Z,Quat_1,Quat_2,Quat_3,Quat_4,Aux_Volts,Current
2025,10,12,16:03:54.410,-2.034,120,-0.1,0.0,0.9,-0.12,0.01,0.98,1.00000,-0.00007,-0.00010,0.00017,0.063,0.0800
2025,10,12,16:03:54.412,-2.032,122,0.1,0.1,1.0,-0.12,0.01,0.98,1.00000,-0.00007,-0.00010,0.00017,0.063,0.0840
2025,10,12,16:03:54.414,-2.030,124,0.0,0.1,0.9,-0.12,0.01,0.99,1.00000,-0.00007,-0.00010,0.00020,0.063,0.0790
2025,10,12,16:03:54.416,-2.028,126,0.0,0.1,0.9,-0.12,0.01,0.99,1.00000,-0.00007,-0.00010,0.00020,0.063,0.0790
2025,10,12,16:03:54.418,-2.026,128,0.0,0.1,0.9,-0.12,0.01,0.98,1.00000,-0.00007,-0.00010,0.00023,0.063,0.0800
2025,10,12,16:03:54.420,-2.024,130,-0.1,0.1,0.9,-0.12,0.01,0.98,1.00000,-0.00007,-0.00007,0.00023,0.063,0.0820
2025,10,12,16:03:54.422,-2.022,132,-0.1,0.1,0.7,-0.12,0.01,0.99,1.00000,-0.00007,-0.00007,0.00027,0.063,0.0790
2025,10,12,16:03:54.424,-2.020,134,-0.1,0.1,0.7,-0.12,0.01,0.98,1.00000,-0.00007,-0.00007,0.00027,0.063,0.0820
2025,10,12,16:03:54.426,-2.018,136,0.0,0.1,0.7,-0.12,0.01,0.99,1.00000,-0.00007,-0.00007,0.00030,0.063,0.0800
2025,10,12,16:03:54.428,-2.016,138,-0.1,0.1,0.7,-0.12,0.01,0.98,1.00000,-0.00007,-0.00007,0.00030,0.064,0.0790
2025,10,12,16:03:54.430,-2.014,140,-0.1,0.0,0.6,-0.12,0.01,0.98,1.00000,-0.00007,-0.00007,0.00030,0.063,0.0790
2025,10,12,16:03:54.432,-2.012,142,0.0,0.1,0.6,-0.12,0.01,0.99,1.00000,-0.00007,-0.00007,0.00033,0.063,0.0770
2025,10,12,16:03:54.434,-2.010,144,0.0,0.0,0.5,-0.12,0.01,0.98,1.00000,-0.00007,-0.00007,0.00033,0.064,0.0760
2025,10,12,16:03:54.436,-2.008,146,0.1,0.1,0.3,-0.12,0.01,0.98,1.00000,-0.00007,-0.00007,0.00033,0.063,0.0820
2025,10,12,16:03:54.438,-2.006,148,0.1,0.1,0.3,-0.12,0.01,0.99,1.00000,-0.00007,-0.00007,0.00033,0.063,0.0790
2025,10,12,16:03:54.440,-2.004,150,0.0,0.1,0.2,-0.12,0.01,0.99,1.00000,-0.00007,-0.00007,0.00033,0.063,0.0790
2025,10,12,16:03:54.442,-2.002,152,0.0,0.1,0.0,-0.12,0.01,0.98,1.00000,-0.00007,-0.00007,0.00037,0.063,0.0790
2025,10,12,16:03:54.444,-2.000,154,0.0,0.1,0.0,-0.12,0.01,0.99,1.00000,-0.00007,-0.00003,0.00037,0.063,0.0820
2025,10,12,16:03:54.446,-1.998,156,0.1,0.1,0.0,-0.12,0.01,0.99,1.00000,-0.00007,-0.00003,0.00033,0.063,0.0770
2025,10,12,16:03:54.448,-1.996,158,0.0,0.1,-0.1,-0.12,0.01,0.98,1.00000,-0.00007,-0.00003,0.00033,0.063,0.0790
2025,10,12,16:03:54.450,-1.994,160,0.0,0.1,-0.3,-0.12,0.01,0.99,1.00000,-0.00007,-0.00003,0.00033,0.063,0.0820
2025,10,12,16:03:54.452,-1.992,162,0.1,0.1,-0.3,-0.12,0.01,0.98,1.00000,-0.00007,-0.00003,0.00033,0.063,0.0770
2025,10,12,16:03:54.454,-1.990,164,0.1,0.1,-0.3,-0.13,0.01,0.98,1.00000,-0.00007,-0.00003,0.00033,0.064,0.0770
2025,10,12,16:03:54.456,-1.988,166,0.1,0.1,-0.4,-0.12,0.02,0.99,1.00000,-0.00007,-0.00003,0.00033,0.063,0.0790
2025,10,12,16:03:54.458,-1.986,168,0.1,0.1,-0.4,-0.12,0.01,0.99,1.00000,-0.00007,-0.00003,0.00030,0.064,0.0790
2025,10,12,16:03:54.460,-1.984,170,0.1,0.1,-0.6,-0.13,0.01,0.98,1.00000,-0.00007,-0.00003,0.00030,0.064,0.0800
2025,10,12,16:03:54.462,-1.982,172,0.2,0.1,-0.7,-0.13,0.02,0.99,1.00000,-0.00007,-0.00003,0.00030,0.064,0.0790
2025,10,12,16:03:54.464,-1.980,174,0.2,0.1,-0.7,-0.13,0.02,0.99,1.00000,-0.00007,-0.00003,0.00027,0.064,0.0820
2025,10,12,16:03:54.466,-1.978,176,0.1,0.3,-0.8,-0.13,0.02,0.99,1.00000,-0.00003,0.00000,0.00027,0.064,0.0820
2025,10,12,16:03:54.468,-1.976,178,0.1,0.1,-0.7,-0.13,0.02,0.99,1.00000,-0.00003,0.00000,0.00023,0.063,0.0800
2025,10,12,16:03:54.470,-1.974,180,0.1,0.3,-0.8,-0.13,0.02,0.99,1.00000,-0.00003,0.00000,0.00023,0.063,0.0800
2025,10,12,16:03:54.472,-1.972,182,0.1,0.1,-1.0,-0.13,0.02,0.99,1.00000,-0.00003,0.00000,0.00020,0.063,0.0770
2025,10,12,16:03:54.474,-1.970,184,0.1,0.0,-0.8,-0.13,0.02,0.98,1.00000,-0.00003,0.00000,0.00020,0.063,0.0800
2025,10,12,16:03:54.476,-1.968,186,0.1,0.3,-1.0,-0.13,0.02,0.99,1.00000,-0.00003,0.00000,0.00017,0.064,0.0770
2025,10,12,16:03:54.478,-1.966,188,0.0,0.0,-0.8,-0.13,0.02,0.99,1.00000,-0.00003,0.00000,0.00017,0.064,0.0770
2025,10,12,16:03:54.480,-1.964,190,0.1,0.1,-0.8,-0.13,0.02,0.99,1.00000,-0.00003,0.00000,0.00013,0.063,0.0770
2025,10,12,16:03:54.482,-1.962,192,0.2,0.1,-1.0,-0.13,0.02,0.98,1.00000,-0.00003,0.00000,0.00013,0.064,0.0770
2025,10,12,16:03:54.484,-1.960,194,0.1,0.1,-1.0,-0.13,0.02,0.99,1.00000,-0.00003,0.00000,0.00010,0.063,0.0770
2025,10,12,16:03:54.486,-1.958,196,0.1,0.3,-0.8,-0.13,0.02,0.99,1.00000,-0.00003,0.00000,0.00010,0.063,0.0790
2025,10,12,16:03:54.488,-1.956,198,0.1,0.1,-1.0,-0.13,0.02,0.99,1.00000,-0.00003,0.00000,0.00007,0.063,0.0790
2025,10,12,16:03:54.490,-1.954,200,0.1,0.1,-0.8,-0.13,0.02,0.99,1.00000,-0.00003,0.00000,0.00007,0.063,0.0770
2025,10,12,16:03:54.492,-1.952,202,0.0,0.1,-0.8,-0.13,0.02,0.98,1.00000,-0.00003,0.00000,0.00003,0.064,0.0790
2025,10,12,16:03:54.494,-1.950,204,0.1,0.1,-0.7,-0.13,0.02,0.98,1.00000,-0.00003,0.00000,0.00003,0.063,0.0790
2025,10,12,16:03:54.496,-1.948,206,0.1,0.3,-0.7,-0.14,0.02,0.99,1.00000,-0.00003,0.00000,0.00003,0.063,0.0800
2025,10,12,16:03:54.498,-1.946,208,0.1,0.3,-0.7,-0.14,0.02,0.99,1.00000,0.00000,0.00000,0.00000,0.063,0.0820
2025,10,12,16:03:54.500,-1.944,210,0.0,0.1,-0.7,-0.14,0.02,0.99,1.00000,0.00000,0.00003,0.00000,0.063,0.0790
2025,10,12,16:03:54.502,-1.942,212,0.1,0.0,-0.6,-0.14,0.02,0.99,1.00000,0.00000,0.00003,0.00000,0.063,0.0800
2025,10,12,16:03:54.504,-1.940,214,0.1,0.1,-0.6,-0.14,0.02,0.98,1.00000,0.00000,0.00003,0.00000,0.064,0.0770
2025,10,12,16:03:54.506,-1.938,216,0.1,0.1,-0.4,-0.14,0.02,0.99,1.00000,0.00000,0.00003,0.00000,0.063,0.0800
2025,10,12,16:03:54.508,-1.936,218,0.0,0.1,-0.4,-0.14,0.02,0.98,1.00000,0.00000,0.00003,0.00000,0.063,0.0760
2025,10,12,16:03:54.510,-1.934,220,0.0,0.0,-0.4,-0.14,0.02,0.99,1.00000,0.00000,0.00003,-0.00003,0.063,0.0790
2025,10,12,16:03:54.512,-1.932,222,0.1,0.0,-0.4,-0.14,0.02,0.98,1.00000,0.00000,0.00003,-0.00003,0.063,0.0790
2025,10,12,16:03:54.514,-1.930,224,0.0,0.1,-0.4,-0.14,0.02,0.98,1.00000,0.00000,0.00003,-0.00003,0.063,0.0770
2025,10,12,16:03:54.516,-1.928,226,0.0,0.0,-0.4,-0.14,0.02,0.98,1.00000,0.00000,0.00003,-0.00003,0.064,0.0760
2025,10,12,16:03:54.518,-1.926,228,0.0,0.0,-0.4,-0.14,0.02,0.98,1.00000,0.00000,0.00003,-0.00007,0.064,0.0760
2025,10,12,16:03:54.520,-1.924,230,0.1,0.0,-0.3,-0.14,0.01,0.98,1.00000,0.00000,0.00003,-0.00007,0.063,0.0800
2025,10,12,16:03:54.522,-1.922,232,0.1,0.0,-0.3,-0.14,0.01,0.98,1.00000,0.00000,0.00003,-0.00007,0.063,0.0770
2025,10,12,16:03:54.524,-1.920,234,0.0,0.0,-0.3,-0.14,0.01,0.98,1.00000,0.00000,0.00003,-0.00007,0.063,0.0740
2025,10,12,16:03:54.526,-1.918,236,0.0,0.0,-0.3,-0.14,0.02,0.98,1.00000,0.00000,0.00003,-0.00007,0.063,0.0770
2025,10,12,16:03:54.528,-1.916,238,0.0,0.0,-0.3,-0.14,0.01,0.98,1.00000,0.00000,0.00003,-0.00007,0.063,0.0790
2025,10,12,16:03:54.530,-1.914,240,0.0,0.0,-0.1,-0.14,0.01,0.98,1.00000,0.00000,0.00003,-0.00010,0.064,0.0800
2025,10,12,16:03:54.532,-1.912,242,0.0,0.0,-0.3,-0.14,0.01,0.98,1.00000,0.00000,0.00003,-0.00010,0.064,0.0800
2025,10,12,16:03:54.534,-1.910,244,0.1,0.0,-0.3,-0.14,0.02,0.98,1.00000,0.00000,0.00003,-0.00010,0.064,0.0790
2025,10,12,16:03:54.536,-1.908,246,0.0,0.0,-0.1,-0.14,0.02,0.98,1.00000,0.00000,0.00003,-0.00010,0.063,0.0760
2025,10,12,16:03:54.538,-1.906,248,0.0,0.0,0.0,-0.14,0.01,0.98,1.00000,0.00000,0.00003,-0.00010,0.063,0.0790
2025,10,12,16:03:54.540,-1.904,0,0.0,0.0,-0.1,-0.14,0.02,0.99,1.00000,0.00000,0.00003,-0.00010,0.063,0.0790
2025,10,12,16:03:54.542,-1.902,2,0.1,0.0,-0.1,-0.14,0.01,0.98,1.00000,0.00000,0.00003,-0.00010,0.064,0.0790
2025,10,12,16:03:54.544,-1.900,4,0.0,0.0,0.0,-0.14,0.02,0.98,1.00000,0.00000,0.00003,-0.00010,0.063,0.0790
2025,10,12,16:03:54.546,-1.898,6,0.0,0.0,0.0,-0.13,0.01,0.98,1.00000,0.00000,0.00003,-0.00010,0.063,0.0790
2025,10,12,16:03:54.548,-1.896,8,0.0,0.0,0.0,-0.14,0.02,0.98,1.00000,0.00000,0.00003,-0.00010,0.063,0.0820
2025,10,12,16:03:54.550,-1.894,10,0.0,0.0,0.0,-0.14,0.02,0.98,1.00000,0.00000,0.00003,-0.00010,0.064,0.0790
2025,10,12,16:03:54.552,-1.892,12,-0.1,0.0,0.0,-0.14,0.02,0.98,1.00000,0.00000,0.00003,-0.00010,0.063,0.0800
2025,10,12,16:03:54.554,-1.890,14,0.0,0.0,0.2,-0.14,0.02,0.98,1.00000,0.00000,0.00003,-0.00010,0.063,0.0790
2025,10,12,16:03:54.556,-1.888,16,0.0,0.0,0.2,-0.13,0.02,0.98,1.00000,0.00000,0.00003,-0.00010,0.063,0.0770
2025,10,12,16:03:54.558,-1.886,18,0.0,0.0,0.0,-0.13,0.02,0.99,1.00000,0.00000,0.00003,-0.00010,0.064,0.0820
2025,10,12,16:03:54.560,-1.884,20,-0.1,-0.2,0.2,-0.14,0.02,0.98,1.00000,0.00000,0.00003,-0.00010,0.064,0.0770
2025,10,12,16:03:54.562,-1.882,22,-0.1,0.0,0.3,-0.13,0.02,0.98,1.00000,0.00000,0.00003,-0.00010,0.064,0.0790
2025,10,12,16:03:54.564,-1.880,24,0.0,0.0,0.3,-0.14,0.02,0.99,1.00000,0.00000,0.00003,-0.00010,0.063,0.0790
2025,10,12,16:03:54.566,-1.878,26,-0.1,0.0,0.5,-0.14,0.02,0.98,1.00000,0.00000,0.00003,-0.00007,0.064,0.0800
2025,10,12,16:03:54.568,-1.876,28,-0.1,0.0,0.5,-0.14,0.02,0.99,1.00000,0.00000,0.00003,-0.00007,0.064,0.0790
2025,10,12,16:03:54.570,-1.874,30,-0.1,0.0,0.6,-0.13,0.02,0.99,1.00000,0.00000,0.00003,-0.00007,0.063,0.0760
2025,10,12,16:03:54.572,-1.872,32,-0.1,0.0,0.6,-0.13,0.02,0.98,1.00000,-0.00003,0.00003,-0.00003,0.063,0.0790
2025,10,12,16:03:54.574,-1.870,34,-0.1,0.0,0.6,-0.13,0.02,0.98,1.00000,-0.00003,0.00003,-0.00003,0.064,0.0770
2025,10,12,16:03:54.576,-1.868,36,-0.1,0.0,0.7,-0.14,0.02,0.99,1.00000,-0.00003,0.00003,-0.00003,0.063,0.0790
2025,10,12,16:03:54.578,-1.866,38,-0.1,0.0,0.6,-0.14,0.02,0.98,1.00000,-0.00003,0.00003,0.00000,0.063,0.0760
2025,10,12,16:03:54.580,-1.864,40,0.0,0.0,0.7,-0.14,0.02,0.99,1.00000,-0.00003,0.00003,0.00000,0.064,0.0770
2025,10,12,16:03:54.582,-1.862,42,-0.1,0.0,0.7,-0.14,0.02,0.99,1.00000,-0.00003,0.00003,0.00000,0.064,0.0770
2025,10,12,16:03:54.584,-1.860,44,-0.1,0.0,0.7,-0.14,0.02,0.99,1.00000,-0.00003,0.00003,0.00000,0.064,0.0790
2025,10,12,16:03:54.586,-1.858,46,-0.1,0.0,0.7,-0.14,0.02,0.99,1.00000,-0.00003,0.00003,0.00000,0.064,0.0770
2025,10,12,16:03:54.588,-1.856,48,0.0,0.0,0.9,-0.14,0.02,0.99,1.00000,-0.00003,0.00003,0.00003,0.063,0.0790
2025,10,12,16:03:54.590,-1.854,50,-0.1,0.0,0.9,-0.13,0.02,0.99,1.00000,-0.00003,0.00003,0.00003,0.063,0.0760
2025,10,12,16:03:54.592,-1.852,52,-0.1,0.0,0.7,-0.14,0.02,0.99,1.00000,-0.00003,0.00003,0.00007,0.063,0.0790
2025,10,12,16:03:54.594,-1.850,54,-0.2,0.0,0.9,-0.14,0.02,0.99,1.00000,-0.00003,0.00003,0.00007,0.063,0.0800
2025,10,12,16:03:54.596,-1.848,56,-0.2,0.0,0.9,-0.14,0.02,0.99,1.00000,-0.00003,0.00003,0.00010,0.064,0.0790
2025,10,12,16:03:54.598,-1.846,58,-0.1,0.0,0.7,-0.14,0.02,0.98,1.00000,-0.00007,0.00000,0.00010,0.063,0.0800
2025,10,12,16:03:54.600,-1.844,60,0.0,0.0,0.7,-0.14,0.02,0.99,1.00000,-0.00007,0.00000,0.00013,0.063,0.0740
2025,10,12,16:03:54.602,-1.842,62,-0.1,0.0,0.6,-0.14,0.02,0.99,1.00000,-0.00007,0.00000,0.00013,0.064,0.0820
2025,10,12,16:03:54.604,-1.840,64,-0.2,-0.2,0.7,-0.14,0.02,0.99,1.00000,-0.00007,0.00000,0.00013,0.063,0.0770
2025,10,12,16:03:54.606,-1.838,66,-0.1,-0.2,0.6,-0.14,0.02,0.99,1.00000,-0.00007,0.00000,0.00017,0.063,0.0820
2025,10,12,16:03:54.608,-1.836,68,-0.1,-0.2,0.3,-0.14,0.02,0.99,1.00000,-0.00007,0.00000,0.00017,0.063,0.0820
2025,10,12,16:03:54.610,-1.834,70,-0.1,-0.2,0.3,-0.14,0.01,0.99,1.00000,-0.00007,0.00000,0.00017,0.063,0.0800
2025,10,12,16:03:54.612,-1.832,72,-0.1,-0.2,0.3,-0.14,0.01,0.98,1.00000,-0.00007,0.00000,0.00017,0.063,0.0820
2025,10,12,16:03:54.614,-1.830,74,0.0,0.0,0.3,-0.14,0.01,0.98,1.00000,-0.00007,0.00000,0.00017,0.063,0.0790
2025,10,12,16:03:54.616,-1.828,76,-0.2,0.0,0.0,-0.13,0.01,0.98,1.00000,-0.00007,0.00000,0.00017,0.064,0.0790
2025,10,12,16:03:54.618,-1.826,78,0.0,-0.3,0.0,-0.13,0.01,0.98,1.00000,-0.00007,0.00000,0.00017,0.063,0.0820
2025,10,12,16:03:54.620,-1.824,80,-0.1,-0.2,-0.1,-0.13,0.01,0.98,1.00000,-0.00007,0.00000,0.00017,0.063,0.0800
2025,10,12,16:03:54.622,-1.822,82,-0.1,-0.2,-0.1,-0.13,0.01,0.98,1.00000,-0.00007,0.00000,0.00017,0.063,0.0790
2025,10,12,16:03:54.624,-1.820,84,-0.1,0.0,-0.1,-0.13,0.01,0.98,1.00000,-0.00007,0.00000,0.00017,0.063,0.0760
2025,10,12,16:03:54.626,-1.818,86,-0.1,-0.2,-0.4,-0.13,0.01,0.98,1.00000,-0.00010,0.00000,0.00017,0.063,0.0790
2025,10,12,16:03:54.628,-1.816,88,-0.1,-0.2,-0.3,-0.13,0.01,0.99,1.00000,-0.00010,0.00000,0.00017,0.064,0.0790
2025,10,12,16:03:54.630,-1.814,90,0.0,-0.2,-0.4,-0.13,0.01,0.98,1.00000,-0.00010,0.00000,0.00013,0.063,0.0800
2025,10,12,16:03:54.632,-1.812,92,0.0,-0.2,-0.6,-0.13,0.01,0.98,1.00000,-0.00010,0.00000,0.00013,0.064,0.0820
2025,10,12,16:03:54.634,-1.810,94,0.0,-0.2,-0.7,-0.13,0.01,0.98,1.00000,-0.00010,0.00000,0.00013,0.063,0.0770
2025,10,12,16:03:54.636,-1.808,96,0.0,-0.3,-0.7,-0.13,0.01,0.99,1.00000,-0.00010,-0.00003,0.00010,0.063,0.0800
2025,10,12,16:03:54.638,-1.806,98,-0.1,-0.3,-0.8,-0.13,0.01,0.99,1.00000,-0.00010,-0.00003,0.00010,0.063,0.0800
2025,10,12,16:03:54.640,-1.804,100,-0.1,-0.2,-0.8,-0.12,0.01,0.98,1.00000,-0.00010,-0.00003,0.00007,0.064,0.0770
2025,10,12,16:03:54.642,-1.802,102,0.0,-0.2,-0.8,-0.12,0.01,0.98,1.00000,-0.00010,-0.00003,0.00007,0.064,0.0820
2025,10,12,16:03:54.644,-1.800,104,0.0,-0.2,-0.8,-0.12,0.01,0.98,1.00000,-0.00010,-0.00003,0.00003,0.063,0.0790
2025,10,12,16:03:54.646,-1.798,106,0.1,-0.2,-0.8,-0.12,0.01,0.98,1.00000,-0.00010,-0.00003,0.00003,0.063,0.0790
2025,10,12,16:03:54.648,-1.796,108,0.1,-0.2,-0.8,-0.12,0.01,0.98,1.00000,-0.00010,-0.00003,0.00003,0.063,0.0790
2025,10,12,16:03:54.650,-1.794,110,0.0,-0.2,-0.8,-0.12,0.01,0.98,1.00000,-0.00010,-0.00007,0.00000,0.063,0.0800
2025,10,12,16:03:54.652,-1.792,112,-0.1,0.0,-0.8,-0.12,0.01,0.99,1.00000,-0.00010,-0.00007,0.00000,0.064,0.0800
2025,10,12,16:03:54.654,-1.790,114,0.0,0.0,-0.7,-0.12,0.01,0.99,1.00000,-0.00010,-0.00007,0.00000,0.063,0.0800
2025,10,12,16:03:54.656,-1.788,116,0.0,-0.2,-0.8,-0.12,0.01,0.99,1.00000,-0.00010,-0.00007,0.00000,0.063,0.0770
2025,10,12,16:03:54.658,-1.786,118,0.0,-0.2,-0.8,-0.12,0.01,0.99,1.00000,-0.00010,-0.00007,-0.00003,0.063,0.0800
2025,10,12,16:03:54.660,-1.784,120,0.1,-0.2,-0.7,-0.11,0.01,0.98,1.00000,-0.00010,-0.00007,-0.00003,0.063,0.0790
2025,10,12,16:03:54.662,-1.782,122,0.0,-0.2,-0.6,-0.11,0.01,0.99,1.00000,-0.00010,-0.00007,-0.00003,0.063,0.0770
2025,10,12,16:03:54.664,-1.780,124,0.0,0.0,-0.6,-0.12,0.01,0.99,1.00000,-0.00010,-0.00007,-0.00007,0.063,0.0820
2025,10,12,16:03:54.666,-1.778,126,0.0,0.0,-0.4,-0.12,0.01,0.99,1.00000,-0.00010,-0.00007,-0.00007,0.063,0.0800
2025,10,12,16:03:54.668,-1.776,128,0.0,0.0,-0.4,-0.12,0.01,0.99,1.00000,-0.00010,-0.00007,-0.00007,0.063,0.0760
2025,10,12,16:03:54.670,-1.774,130,0.0,0.0,-0.3,-0.12,0.01,0.99,1.00000,-0.00010,-0.00007,-0.00007,0.063,0.0800
2025,10,12,16:03:54.672,-1.772,132,0.0,-0.2,-0.3,-0.12,0.01,0.99,1.00000,-0.00010,-0.00007,-0.00010,0.063,0.0770
2025,10,12,16:03:54.674,-1.770,134,-0.1,0.0,-0.1,-0.12,0.01,0.99,1.00000,-0.00010,-0.00010,-0.00010,0.064,0.0770
2025,10,12,16:03:54.676,-1.768,136,0.0,0.0,-0.1,-0.11,0.01,0.99,1.00000,-0.00010,-0.00010,-0.00010,0.063,0.0800
2025,10,12,16:03:54.678,-1.766,138,0.0,-0.2,-0.1,-0.12,0.01,0.99,1.00000,-0.00010,-0.00010,-0.00010,0.063,0.0820
2025,10,12,16:03:54.680,-1.764,140,0.0,0.0,0.0,-0.12,0.01,0.99,1.00000,-0.00010,-0.00010,-0.00010,0.063,0.0800
2025,10,12,16:03:54.682,-1.762,142,0.0,0.0,0.0,-0.12,0.01,0.99,1.00000,-0.00010,-0.00010,-0.00010,0.064,0.0800
2025,10,12,16:03:54.684,-1.760,144,0.0,0.0,0.0,-0.12,0.01,0.99,1.00000,-0.00010,-0.00010,-0.00010,0.064,0.0770
2025,10,12,16:03:54.686,-1.758,146,0.0,0.0,0.0,-0.12,0.00,0.99,1.00000,-0.00010,-0.00010,-0.00010,0.064,0.0800
2025,10,12,16:03:54.688,-1.756,148,0.0,0.0,0.2,-0.12,0.01,0.99,1.00000,-0.00010,-0.00010,-0.00010,0.063,0.0800
2025,10,12,16:03:54.690,-1.754,150,-0.1,0.0,0.3,-0.12,0.01,0.99,1.00000,0.00000,0.00000,0.00000,0.063,0.0820
2025,10,12,16:03:54.692,-1.752,152,-0.1,0.0,0.2,-0.12,0.00,0.99,1.00000,0.00000,0.00000,0.00000,0.063,0.0820
2025,10,12,16:03:54.694,-1.750,154,0.0,0.0,0.2,-0.12,0.01,0.98,1.00000,0.00000,0.00000,0.00000,0.064,0.0820
2025,10,12,16:03:54.696,-1.748,156,0.0,0.0,0.2,-0.12,0.00,0.99,1.00000,0.00000,0.00000,0.00000,0.063,0.0790
2025,10,12,16:03:54.698,-1.746,158,0.0,0.0,0.3,-0.12,0.01,0.99,1.00000,0.00000,0.00000,0.00000,0.063,0.0820
2025,10,12,16:03:54.700,-1.744,160,0.0,0.0,0.3,-0.12,0.01,0.99,1.00000,0.00000,0.00000,0.00000,0.063,0.0800
2025,10,12,16:03:54.702,-1.742,162,0.1,0.0,0.3,-0.12,0.00,0.98,1.00000,0.00000,0.00000,0.00003,0.064,0.0790
2025,10,12,16:03:54.704,-1.740,164,0.0,0.0,0.3,-0.12,0.01,0.99,1.00000,0.00000,0.00000,0.00003,0.063,0.0800
2025,10,12,16:03:54.706,-1.738,166,0.0,0.0,0.3,-0.12,0.01,0.99,1.00000,0.00000,0.00000,0.00003,0.063,0.0770
2025,10,12,16:03:54.708,-1.736,168,0.0,0.0,0.3,-0.13,0.01,0.99,1.00000,0.00000,0.00000,0.00003,0.064,0.0760
2025,10,12,16:03:54.710,-1.734,170,0.0,0.0,0.5,-0.12,0.01,0.99,1.00000,0.00000,0.00000,0.00003,0.064,0.0790
2025,10,12,16:03:54.712,-1.732,172,0.0,0.0,0.3,-0.12,0.01,0.99,1.00000,0.00000,0.00000,0.00007,0.063,0.0800
2025,10,12,16:03:54.714,-1.730,174,0.1,0.0,0.3,-0.12,0.00,0.99,1.00000,0.00000,0.00000,0.00007,0.063,0.0770
2025,10,12,16:03:54.716,-1.728,176,0.1,0.0,0.3,-0.12,0.01,0.99,1.00000,0.00000,0.00000,0.00007,0.063,0.0800
2025,10,12,16:03:54.718,-1.726,178,0.0,0.1,0.5,-0.12,0.01,0.99,1.00000,0.00000,0.00000,0.00007,0.063,0.0770
2025,10,12,16:03:54.720,-1.724,180,0.1,0.0,0.3,-0.12,0.01,0.99,1.00000,0.00000,0.00000,0.00007,0.063,0.0790
2025,10,12,16:03:54.722,-1.722,182,0.1,0.0,0.5,-0.12,0.01,0.98,1.00000,0.00000,0.00000,0.00010,0.064,0.0820
2025,10,12,16:03:54.724,-1.720,184,0.0,0.0,0.5,-0.12,0.00,0.98,1.00000,0.00000,0.00000,0.00010,0.064,0.0820
2025,10,12,16:03:54.726,-1.718,186,0.1,0.0,0.3,-0.12,0.01,0.98,1.00000,0.00000,0.00000,0.00010,0.063,0.0790
2025,10,12,16:03:54.728,-1.716,188,0.0,0.0,0.3,-0.12,0.01,0.99,1.00000,0.00000,0.00000,0.00010,0.063,0.0800
2025,10,12,16:03:54.730,-1.714,190,0.0,0.0,0.5,-0.12,0.01,0.99,1.00000,0.00000,0.00000,0.00013,0.064,0.0800
2025,10,12,16:03:54.732,-1.712,192,0.1,0.0,0.5,-0.12,0.01,0.99,1.00000,0.00000,0.00000,0.00013,0.064,0.0820
2025,10,12,16:03:54.734,-1.710,194,0.1,0.1,0.5,-0.12,0.01,0.98,1.00000,0.00000,0.00000,0.00013,0.064,0.0760
2025,10,12,16:03:54.736,-1.708,196,0.0,0.0,0.6,-0.12,0.01,0.99,1.00000,0.00000,0.00000,0.00017,0.064,0.0800
2025,10,12,16:03:54.738,-1.706,198,0.1,0.1,0.5,-0.12,0.01,0.99,1.00000,0.00000,0.00000,0.00017,0.063,0.0760
2025,10,12,16:03:54.740,-1.704,200,0.0,0.0,0.6,-0.12,0.01,0.99,1.00000,0.00000,0.00000,0.00017,0.063,0.0760
2025,10,12,16:03:54.742,-1.702,202,0.0,0.1,0.6,-0.12,0.01,0.99,1.00000,0.00000,0.00000,0.00017,0.063,0.0790
2025,10,12,16:03:54.744,-1.700,204,0.1,0.0,0.6,-0.12,0.01,0.99,1.00000,0.00000,0.00000,0.00020,0.063,0.0790
2025,10,12,16:03:54.746,-1.698,206,0.0,0.0,0.7,-0.12,0.01,0.99,1.00000,0.00000,0.00000,0.00020,0.063,0.0800
2025,10,12,16:03:54.748,-1.696,208,0.0,0.1,0.6,-0.12,0.01,0.99,1.00000,0.00000,0.00000,0.00023,0.064,0.0800
2025,10,12,16:03:54.750,-1.694,210,0.1,0.0,0.7,-0.11,0.01,0.99,1.00000,0.00000,0.00000,0.00023,0.063,0.0800
2025,10,12,16:03:54.752,-1.692,212,0.1,0.1,0.7,-0.11,0.01,0.98,1.00000,0.00000,0.00000,0.00023,0.063,0.0800
2025,10,12,16:03:54.754,-1.690,214,0.0,0.1,0.7,-0.11,0.01,0.99,1.00000,0.00000,0.00000,0.00027,0.064,0.0790
2025,10,12,16:03:54.756,-1.688,216,0.0,0.1,0.6,-0.12,0.01,0.98,1.00000,0.00000,0.00000,0.00027,0.063,0.0770
2025,10,12,16:03:54.758,-1.686,218,0.1,0.0,0.6,-0.12,0.02,0.99,1.00000,0.00000,0.00000,0.00027,0.063,0.0770
2025,10,12,16:03:54.760,-1.684,220,0.0,0.1,0.6,-0.12,0.02,0.99,1.00000,0.00000,0.00000,0.00030,0.063,0.0800
2025,10,12,16:03:54.762,-1.682,222,0.0,0.1,0.7,-0.12,0.02,0.99,1.00000,0.00000,0.00000,0.00030,0.063,0.0770
2025,10,12,16:03:54.764,-1.680,224,0.2,0.0,0.7,-0.12,0.01,0.99,1.00000,0.00000,0.00000,0.00033,0.063,0.0770
2025,10,12,16:03:54.766,-1.678,226,0.0,0.0,0.7,-0.12,0.01,0.99,1.00000,0.00000,0.00000,0.00033,0.063,0.0800
2025,10,12,16:03:54.768,-1.676,228,0.1,0.1,0.6,-0.12,0.01,0.99,1.00000,0.00000,0.00000,0.00033,0.063,0.0800
2025,10,12,16:03:54.770,-1.674,230,0.1,0.1,0.6,-0.12,0.02,0.99,1.00000,0.00000,0.00000,0.00037,0.063,0.0790
2025,10,12,16:03:54.772,-1.672,232,0.0,0.1,0.6,-0.12,0.01,0.99,1.00000,0.00000,0.00000,0.00037,0.063,0.0790
2025,10,12,16:03:54.774,-1.670,234,0.0,0.1,0.5,-0.13,0.01,0.98,1.00000,0.00000,0.00003,0.00037,0.064,0.0790
2025,10,12,16:03:54.776,-1.668,236,0.1,0.1,0.6,-0.13,0.01,0.98,1.00000,0.00000,0.00003,0.00040,0.064,0.0800
2025,10,12,16:03:54.778,-1.666,238,0.1,0.1,0.5,-0.13,0.01,0.98,1.00000,0.00003,0.00003,0.00040,0.064,0.0760
2025,10,12,16:03:54.780,-1.664,240,0.0,0.1,0.3,-0.13,0.01,0.99,0.99997,0.00003,0.00003,0.00040,0.064,0.0770
2025,10,12,16:03:54.782,-1.662,242,0.0,0.1,0.5,-0.13,0.02,0.98,0.99997,0.00003,0.00003,0.00040,0.064,0.0770
2025,10,12,16:03:54.784,-1.660,244,0.1,0.3,0.3,-0.13,0.01,0.99,0.99997,0.00003,0.00003,0.00043,0.063,0.0820
2025,10,12,16:03:54.786,-1.658,246,0.1,0.1,0.0,-0.13,0.01,0.99,0.99997,0.00003,0.00003,0.00043,0.064,0.0770
2025,10,12,16:03:54.788,-1.656,248,0.1,0.3,0.0,-0.13,0.01,0.98,0.99997,0.00003,0.00003,0.00043,0.064,0.0800
2025,10,12,16:03:54.790,-1.654,0,0.2,0.1,0.2,-0.13,0.01,0.98,0.99997,0.00003,0.00003,0.00043,0.063,0.0760
2025,10,12,16:03:54.792,-1.652,2,0.1,0.3,-0.1,-0.13,0.02,0.99,0.99997,0.00003,0.00007,0.00043,0.064,0.0790
2025,10,12,16:03:54.794,-1.650,4,0.1,0.0,-0.1,-0.13,0.02,0.99,0.99997,0.00003,0.00007,0.00043,0.064,0.0770
2025,10,12,16:03:54.796,-1.648,6,0.1,0.1,-0.3,-0.13,0.01,0.99,0.99997,0.00003,0.00007,0.00040,0.064,0.0800
2025,10,12,16:03:54.798,-1.646,8,0.1,0.1,-0.3,-0.13,0.01,0.98,0.99997,0.00003,0.00007,0.00040,0.064,0.0800
2025,10,12,16:03:54.800,-1.644,10,0.1,0.3,-0.4,-0.13,0.01,0.99,0.99997,0.00003,0.00007,0.00040,0.064,0.0770
2025,10,12,16:03:54.802,-1.642,12,0.1,0.1,-0.4,-0.13,0.02,0.98,0.99997,0.00003,0.00007,0.00040,0.063,0.0800
2025,10,12,16:03:54.804,-1.640,14,0.1,0.3,-0.6,-0.13,0.02,0.98,0.99997,0.00003,0.00007,0.00037,0.063,0.0800
2025,10,12,16:03:54.806,-1.638,16,0.1,0.1,-0.6,-0.13,0.02,0.99,0.99997,0.00003,0.00007,0.00037,0.063,0.0790
2025,10,12,16:03:54.808,-1.636,18,0.2,0.1,-0.7,-0.14,0.02,0.98,0.99997,0.00007,0.00007,0.00037,0.063,0.0790
2025,10,12,16:03:54.810,-1.634,20,0.2,0.1,-0.7,-0.14,0.02,0.99,0.99997,0.00007,0.00010,0.00033,0.063,0.0790
2025,10,12,16:03:54.812,-1.632,22,0.1,0.1,-0.8,-0.13,0.02,0.99,0.99997,0.00007,0.00010,0.00033,0.064,0.0760
2025,10,12,16:03:54.814,-1.630,24,0.2,0.0,-0.9,-0.13,0.02,0.98,0.99997,0.00007,0.00010,0.00030,0.064,0.0820
2025,10,12,16:03:54.816,-1.628,26,0.2,0.0,-0.9,-0.13,0.02,0.98,0.99997,0.00007,0.00010,0.00030,0.064,0.0770
2025,10,12,16:03:54.818,-1.626,28,0.1,0.0,-0.9,-0.13,0.02,0.98,0.99997,0.00007,0.00010,0.00027,0.063,0.0800
2025,10,12,16:03:54.820,-1.624,30,0.1,0.1,-0.9,-0.14,0.02,0.98,0.99997,0.00007,0.00010,0.00027,0.064,0.0840
2025,10,12,16:03:54.822,-1.622,32,0.2,0.1,-0.9,-0.13,0.02,0.99,0.99997,0.00007,0.00010,0.00023,0.063,0.0800
2025,10,12,16:03:54.824,-1.620,34,0.2,0.1,-1.1,-0.13,0.02,0.98,1.00000,0.00007,0.00010,0.00023,0.064,0.0790
2025,10,12,16:03:54.826,-1.618,36,0.2,0.0,-1.0,-0.14,0.02,0.98,1.00000,0.00010,0.00010,0.00020,0.063,0.0770
2025,10,12,16:03:54.828,-1.616,38,0.1,0.1,-1.1,-0.13,0.02,0.99,1.00000,0.00010,0.00010,0.00020,0.064,0.0790
2025,10,12,16:03:54.830,-1.614,40,0.1,0.0,-1.0,-0.13,0.02,0.99,1.00000,0.00010,0.00010,0.00017,0.064,0.0800
2025,10,12,16:03:54.832,-1.612,42,0.1,0.0,-0.9,-0.13,0.02,0.98,1.00000,0.00010,0.00010,0.00017,0.063,0.0820
2025,10,12,16:03:54.834,-1.610,44,0.1,0.1,-0.9,-0.13,0.02,0.98,1.00000,0.00010,0.00010,0.00013,0.063,0.0770
2025,10,12,16:03:54.836,-1.608,46,0.1,0.1,-0.9,-0.13,0.02,0.98,1.00000,0.00010,0.00010,0.00013,0.064,0.0800
2025,10,12,16:03:54.838,-1.606,48,0.1,0.1,-0.7,-0.13,0.02,0.98,1.00000,0.00010,0.00010,0.00010,0.064,0.0770
2025,10,12,16:03:54.840,-1.604,50,0.1,0.1,-0.7,-0.13,0.02,0.98,1.00000,0.00010,0.00010,0.00010,0.063,0.0760
2025,10,12,16:03:54.842,-1.602,52,0.1,0.1,-0.6,-0.13,0.02,0.98,1.00000,0.00010,0.00013,0.00010,0.063,0.0790
2025,10,12,16:03:54.844,-1.600,54,0.0,0.0,-0.4,-0.13,0.02,0.98,1.00000,0.00010,0.00013,0.00007,0.063,0.0800
2025,10,12,16:03:54.846,-1.598,56,0.0,0.0,-0.4,-0.13,0.02,0.99,1.00000,0.00010,0.00013,0.00007,0.063,0.0790
2025,10,12,16:03:54.848,-1.596,58,0.0,0.0,-0.4,-0.13,0.02,0.98,1.00000,0.00010,0.00013,0.00007,0.063,0.0790
2025,10,12,16:03:54.850,-1.594,60,0.0,0.1,-0.3,-0.13,0.02,0.99,1.00000,0.00010,0.00013,0.00007,0.063,0.0800
2025,10,12,16:03:54.852,-1.592,62,0.0,0.0,-0.3,-0.13,0.02,0.99,1.00000,0.00010,0.00013,0.00003,0.064,0.0820
2025,10,12,16:03:54.854,-1.590,64,0.0,0.1,-0.2,-0.13,0.02,0.99,1.00000,0.00010,0.00013,0.00003,0.063,0.0770
2025,10,12,16:03:54.856,-1.588,66,0.0,0.1,-0.2,-0.13,0.02,0.99,1.00000,0.00010,0.00013,0.00003,0.063,0.0790
2025,10,12,16:03:54.858,-1.586,68,0.1,0.0,0.0,-0.13,0.02,0.98,1.00000,0.00010,0.00013,0.00003,0.064,0.0790
2025,10,12,16:03:54.860,-1.584,70,0.0,0.1,0.0,-0.13,0.02,0.98,1.00000,0.00010,0.00013,0.00003,0.064,0.0800
2025,10,12,16:03:54.862,-1.582,72,0.0,0.0,0.2,-0.13,0.02,0.98,1.00000,0.00010,0.00013,0.00003,0.063,0.0800
2025,10,12,16:03:54.864,-1.580,74,0.0,0.1,0.0,-0.13,0.02,0.98,1.00000,0.00010,0.00013,0.00003,0.063,0.0770
2025,10,12,16:03:54.866,-1.578,76,0.0,0.0,0.2,-0.13,0.02,0.99,1.00000,0.00010,0.00013,0.00007,0.063,0.0800
2025,10,12,16:03:54.868,-1.576,78,0.0,0.0,0.3,-0.14,0.02,0.99,1.00000,0.00010,0.00013,0.00007,0.063,0.0800
2025,10,12,16:03:54.870,-1.574,80,-0.1,0.0,0.2,-0.14,0.02,0.98,1.00000,0.00010,0.00013,0.00007,0.063,0.0790
2025,10,12,16:03:54.872,-1.572,82,0.0,0.0,0.2,-0.13,0.02,0.98,1.00000,0.00010,0.00013,0.00007,0.063,0.0770
2025,10,12,16:03:54.874,-1.570,84,0.0,0.0,0.2,-0.14,0.02,0.98,1.00000,0.00010,0.00013,0.00007,0.063,0.0800
2025,10,12,16:03:54.876,-1.568,86,0.0,0.1,0.3,-0.14,0.01,0.99,1.00000,0.00010,0.00013,0.00007,0.063,0.0770
2025,10,12,16:03:54.878,-1.566,88,0.0,0.0,0.3,-0.14,0.02,0.99,1.00000,0.00010,0.00013,0.00007,0.063,0.0770
2025,10,12,16:03:54.880,-1.564,90,0.0,0.0,0.4,-0.14,0.02,0.98,1.00000,0.00010,0.00013,0.00010,0.063,0.0800
2025,10,12,16:03:54.882,-1.562,92,0.0,0.0,0.3,-0.14,0.02,0.98,1.00000,0.00010,0.00013,0.00010,0.063,0.0790
2025,10,12,16:03:54.884,-1.560,94,-0.1,0.0,0.3,-0.14,0.02,0.98,1.00000,0.00010,0.00013,0.00010,0.064,0.0790
2025,10,12,16:03:54.886,-1.558,96,0.0,0.0,0.3,-0.14,0.02,0.98,1.00000,0.00010,0.00013,0.00010,0.064,0.0760
2025,10,12,16:03:54.888,-1.556,98,-0.1,0.0,0.3,-0.14,0.02,0.99,1.00000,0.00010,0.00013,0.00013,0.063,0.0770
2025,10,12,16:03:54.890,-1.554,100,0.0,0.0,0.3,-0.14,0.02,0.99,1.00000,0.00010,0.00013,0.00013,0.064,0.0800
2025,10,12,16:03:54.892,-1.552,102,-0.1,0.0,0.3,-0.14,0.02,0.98,1.00000,0.00010,0.00013,0.00013,0.064,0.0800
2025,10,12,16:03:54.894,-1.550,104,-0.1,0.0,0.3,-0.14,0.02,0.99,1.00000,0.00010,0.00017,0.00013,0.063,0.0800
2025,10,12,16:03:54.896,-1.548,106,-0.1,0.0,0.2,-0.14,0.02,0.98,1.00000,0.00010,0.00017,0.00013,0.063,0.0790
2025,10,12,16:03:54.898,-1.546,108,-0.1,0.0,0.2,-0.14,0.02,0.98,1.00000,0.00010,0.00017,0.00013,0.063,0.0800
2025,10,12,16:03:54.900,-1.544,110,-0.1,0.0,0.2,-0.14,0.02,0.98,1.00000,0.00007,0.00017,0.00013,0.064,0.0790
2025,10,12,16:03:54.902,-1.542,112,0.0,0.0,0.2,-0.14,0.02,0.98,1.00000,0.00007,0.00013,0.00017,0.063,0.0760
2025,10,12,16:03:54.904,-1.540,114,0.0,0.0,0.3,-0.14,0.02,0.98,1.00000,0.00007,0.00013,0.00017,0.063,0.0760
2025,10,12,16:03:54.906,-1.538,116,0.0,0.0,0.2,-0.14,0.02,0.98,1.00000,0.00007,0.00013,0.00017,0.063,0.0770
2025,10,12,16:03:54.908,-1.536,118,-0.1,0.0,0.2,-0.14,0.02,0.98,1.00000,0.00007,0.00013,0.00017,0.063,0.0760
2025,10,12,16:03:54.910,-1.534,120,-0.2,0.0,0.3,-0.14,0.02,0.98,1.00000,0.00007,0.00013,0.00017,0.063,0.0800
2025,10,12,16:03:54.912,-1.532,122,-0.1,0.0,0.2,-0.14,0.02,0.98,1.00000,0.00007,0.00013,0.00017,0.063,0.0790
2025,10,12,16:03:54.914,-1.530,124,0.0,0.0,0.2,-0.14,0.02,0.98,1.00000,0.00007,0.00013,0.00017,0.063,0.0790
2025,10,12,16:03:54.916,-1.528,126,-0.1,0.0,0.2,-0.14,0.02,0.99,1.00000,0.00007,0.00013,0.00017,0.063,0.0800
2025,10,12,16:03:54.918,-1.526,128,0.0,0.0,0.2,-0.14,0.02,0.99,1.00000,0.00007,0.00013,0.00020,0.063,0.0800
2025,10,12,16:03:54.920,-1.524,130,-0.1,0.0,0.2,-0.14,0.02,0.98,1.00000,0.00007,0.00013,0.00020,0.063,0.0800
2025,10,12,16:03:54.922,-1.522,132,0.0,0.0,0.2,-0.14,0.02,0.99,1.00000,0.00007,0.00013,0.00020,0.063,0.0770
2025,10,12,16:03:54.924,-1.520,134,-0.1,0.0,0.2,-0.14,0.02,0.99,1.00000,0.00007,0.00013,0.00020,0.064,0.0820
2025,10,12,16:03:54.926,-1.518,136,-0.1,0.0,0.3,-0.14,0.02,0.98,1.00000,0.00007,0.00013,0.00020,0.063,0.0740
2025,10,12,16:03:54.928,-1.516,138,0.0,-0.2,0.3,-0.13,0.02,0.99,1.00000,0.00007,0.00013,0.00020,0.063,0.0790
2025,10,12,16:03:54.930,-1.514,140,-0.1,0.0,0.3,-0.13,0.02,0.98,1.00000,0.00007,0.00013,0.00020,0.064,0.0760
2025,10,12,16:03:54.932,-1.512,142,-0.1,-0.2,0.2,-0.13,0.02,0.98,1.00000,0.00007,0.00013,0.00023,0.064,0.0760
2025,10,12,16:03:54.934,-1.510,144,-0.1,0.0,0.3,-0.13,0.02,0.98,1.00000,0.00007,0.00013,0.00023,0.063,0.0760
2025,10,12,16:03:54.936,-1.508,146,-0.2,0.0,0.3,-0.13,0.02,0.98,1.00000,0.00003,0.00010,0.00023,0.063,0.0790
2025,10,12,16:03:54.938,-1.506,148,-0.1,-0.2,0.3,-0.13,0.02,0.99,1.00000,0.00003,0.00010,0.00023,0.063,0.0770
2025,10,12,16:03:54.940,-1.504,150,-0.1,0.0,0.3,-0.13,0.02,0.98,1.00000,0.00003,0.00010,0.00023,0.063,0.0800
2025,10,12,16:03:54.942,-1.502,152,-0.1,0.0,0.3,-0.13,0.02,0.98,1.00000,0.00003,0.00010,0.00027,0.063,0.0800
2025,10,12,16:03:54.944,-1.500,154,-0.1,0.0,0.3,-0.13,0.02,0.98,1.00000,0.00003,0.00010,0.00027,0.063,0.0790
2025,10,12,16:03:54.946,-1.498,156,-0.2,-0.2,0.2,-0.13,0.02,0.98,1.00000,0.00003,0.00010,0.00027,0.063,0.0800
2025,10,12,16:03:54.948,-1.496,158,-0.2,0.0,0.2,-0.13,0.02,0.99,1.00000,0.00003,0.00010,0.00027,0.064,0.0840
2025,10,12,16:03:54.950,-1.494,160,-0.1,-0.2,0.2,-0.13,0.02,0.98,1.00000,0.00003,0.00010,0.00027,0.063,0.0770
2025,10,12,16:03:54.952,-1.492,162,0.0,-0.2,0.0,-0.13,0.02,0.99,1.00000,0.00003,0.00010,0.00027,0.063,0.0770
2025,10,12,16:03:54.954,-1.490,164,-0.1,0.0,0.0,-0.13,0.02,0.99,1.00000,0.00003,0.00010,0.00027,0.063,0.0790
2025,10,12,16:03:54.956,-1.488,166,-0.1,-0.2,0.0,-0.13,0.01,0.99,1.00000,0.00003,0.00010,0.00027,0.064,0.0790
2025,10,12,16:03:54.958,-1.486,168,-0.1,0.0,0.0,-0.13,0.01,0.98,1.00000,0.00003,0.00010,0.00027,0.063,0.0790
2025,10,12,16:03:54.960,-1.484,170,-0.1,0.0,0.0,-0.13,0.01,0.98,1.00000,0.00000,0.00010,0.00027,0.063,0.0790
2025,10,12,16:03:54.962,-1.482,172,-0.1,0.0,-0.2,-0.13,0.01,0.99,1.00000,0.00000,0.00007,0.00027,0.063,0.0790
2025,10,12,16:03:54.964,-1.480,174,-0.1,0.0,-0.2,-0.13,0.01,0.98,1.00000,0.00000,0.00007,0.00027,0.064,0.0800
2025,10,12,16:03:54.966,-1.478,176,-0.1,0.0,-0.3,-0.13,0.01,0.99,1.00000,0.00000,0.00007,0.00027,0.064,0.0760
2025,10,12,16:03:54.968,-1.476,178,0.0,0.0,-0.4,-0.13,0.01,0.99,1.00000,0.00000,0.00007,0.00023,0.064,0.0770
2025,10,12,16:03:54.970,-1.474,180,0.0,0.0,-0.4,-0.13,0.01,0.99,1.00000,0.00000,0.00007,0.00023,0.063,0.0800
2025,10,12,16:03:54.972,-1.472,182,0.0,0.0,-0.4,-0.13,0.01,0.99,1.00000,0.00000,0.00007,0.00023,0.064,0.0800
2025,10,12,16:03:54.974,-1.470,184,-0.1,-0.2,-0.4,-0.13,0.01,0.99,1.00000,0.00000,0.00007,0.00023,0.064,0.0760
2025,10,12,16:03:54.976,-1.468,186,0.0,0.0,-0.6,-0.13,0.01,0.99,1.00000,0.00000,0.00007,0.00020,0.064,0.0800
2025,10,12,16:03:54.978,-1.466,188,-0.1,0.0,-0.6,-0.13,0.01,0.99,1.00000,0.00000,0.00007,0.00020,0.064,0.0770
2025,10,12,16:03:54.980,-1.464,190,-0.1,0.0,-0.7,-0.13,0.01,0.99,1.00000,0.00000,0.00007,0.00020,0.063,0.0790
2025,10,12,16:03:54.982,-1.462,192,0.0,-0.2,-0.9,-0.13,0.01,0.99,1.00000,0.00000,0.00007,0.00017,0.063,0.0800
2025,10,12,16:03:54.984,-1.460,194,0.0,0.0,-0.9,-0.13,0.01,0.99,1.00000,0.00000,0.00007,0.00017,0.064,0.0790
2025,10,12,16:03:54.986,-1.458,196,0.0,-0.2,-0.7,-0.13,0.01,0.99,1.00000,0.00000,0.00007,0.00013,0.064,0.0800
2025,10,12,16:03:54.988,-1.456,198,0.0,-0.2,-0.9,-0.13,0.01,0.99,1.00000,0.00000,0.00003,0.00013,0.063,0.0770
2025,10,12,16:03:54.990,-1.454,200,0.1,0.0,-1.0,-0.13,0.01,0.99,1.00000,0.00000,0.00003,0.00010,0.063,0.0790
2025,10,12,16:03:54.992,-1.452,202,0.0,0.0,-1.0,-0.13,0.01,0.99,1.00000,0.00000,0.00003,0.00010,0.063,0.0790
2025,10,12,16:03:54.994,-1.450,204,0.0,0.0,-1.0,-0.13,0.01,0.99,1.00000,0.00000,0.00003,0.00007,0.063,0.0800
2025,10,12,16:03:54.996,-1.448,206,-0.1,0.0,-1.0,-0.13,0.01,0.99,1.00000,0.00000,0.00003,0.00007,0.063,0.0770
2025,10,12,16:03:54.998,-1.446,208,-0.1,0.0,-0.9,-0.13,0.01,0.99,1.00000,0.00000,0.00003,0.00003,0.064,0.0790
2025,10,12,16:03:55.000,-1.444,210,0.1,-0.2,-1.1,-0.13,0.01,0.98,1.00000,0.00000,0.00003,0.00003,0.064,0.0800
2025,10,12,16:03:55.002,-1.442,212,0.1,0.0,-0.9,-0.13,0.01,0.99,1.00000,0.00000,0.00003,0.00000,0.064,0.0800
2025,10,12,16:03:55.004,-1.440,214,0.0,-0.2,-0.9,-0.12,0.01,0.99,1.00000,0.00000,0.00003,0.00000,0.064,0.0790
2025,10,12,16:03:55.006,-1.438,216,0.0,0.0,-0.9,-0.12,0.01,0.99,1.00000,0.00000,0.00003,0.00000,0.063,0.0790
2025,10,12,16:03:55.008,-1.436,218,0.0,0.0,-0.9,-0.12,0.01,0.98,1.00000,0.00000,0.00003,0.00000,0.063,0.0790
2025,10,12,16:03:55.010,-1.434,220,0.0,0.0,-0.7,-0.12,0.01,0.99,1.00000,0.00000,0.00003,-0.00003,0.063,0.0820
2025,10,12,16:03:55.012,-1.432,222,0.0,-0.2,-0.6,-0.12,0.01,0.99,1.00000,0.00000,0.00003,-0.00003,0.063,0.0820
2025,10,12,16:03:55.014,-1.430,224,0.0,0.0,-0.4,-0.12,0.01,0.99,1.00000,0.00000,0.00003,-0.00003,0.063,0.0800
2025,10,12,16:03:55.016,-1.428,226,0.0,0.0,-0.4,-0.12,0.01,0.99,1.00000,0.00000,0.00003,-0.00007,0.063,0.0800
2025,10,12,16:03:55.018,-1.426,228,0.0,0.0,-0.4,-0.12,0.01,0.98,1.00000,0.00000,0.00000,-0.00007,0.063,0.0800
2025,10,12,16:03:55.020,-1.424,230,0.0,0.0,-0.3,-0.12,0.01,0.99,1.00000,0.00000,0.00000,-0.00007,0.064,0.0790
2025,10,12,16:03:55.022,-1.422,232,0.0,0.0,0.0,-0.12,0.01,0.99,1.00000,0.00000,0.00000,-0.00007,0.063,0.0800
2025,10,12,16:03:55.024,-1.420,234,0.0,0.0,-0.2,-0.12,0.01,0.98,1.00000,0.00000,0.00000,-0.00007,0.063,0.0840
2025,10,12,16:03:55.026,-1.418,236,0.0,-0.2,0.0,-0.12,0.01,0.99,1.00000,0.00000,0.00000,-0.00007,0.063,0.0790
2025,10,12,16:03:55.028,-1.416,238,0.0,-0.2,0.0,-0.12,0.01,0.99,1.00000,0.00000,0.00000,-0.00007,0.063,0.0820
2025,10,12,16:03:55.030,-1.414,240,0.0,0.0,0.2,-0.12,0.01,0.99,1.00000,0.00000,0.00000,-0.00007,0.064,0.0800
2025,10,12,16:03:55.032,-1.412,242,-0.1,0.0,0.2,-0.12,0.01,0.99,1.00000,0.00000,0.00000,-0.00007,0.064,0.0790
2025,10,12,16:03:55.034,-1.410,244,0.0,0.0,0.2,-0.12,0.01,0.98,1.00000,0.00000,0.00000,-0.00007,0.063,0.0790
2025,10,12,16:03:55.036,-1.408,246,-0.1,0.0,0.3,-0.12,0.01,0.98,1.00000,0.00000,0.00000,-0.00003,0.064,0.0770
2025,10,12,16:03:55.038,-1.406,248,-0.1,0.0,0.3,-0.12,0.01,0.98,1.00000,0.00000,0.00000,-0.00003,0.064,0.0800
2025,10,12,16:03:55.040,-1.404,0,0.0,0.0,0.4,-0.12,0.01,0.98,1.00000,0.00000,0.00000,-0.00003,0.063,0.0800
2025,10,12,16:03:55.042,-1.402,2,0.0,0.0,0.4,-0.12,0.01,0.98,1.00000,0.00000,0.00000,-0.00003,0.063,0.0790
2025,10,12,16:03:55.044,-1.400,4,0.0,0.0,0.4,-0.12,0.01,0.98,1.00000,0.00000,0.00000,-0.00003,0.063,0.0800
2025,10,12,16:03:55.046,-1.398,6,0.0,0.0,0.6,-0.12,0.00,0.98,1.00000,0.00000,0.00000,0.00000,0.063,0.0770
2025,10,12,16:03:55.048,-1.396,8,-0.1,0.0,0.6,-0.12,0.00,0.98,1.00000,0.00000,0.00000,0.00000,0.063,0.0820
2025,10,12,16:03:55.050,-1.394,10,0.0,0.0,0.6,-0.12,0.00,0.98,1.00000,0.00000,0.00000,0.00000,0.063,0.0800
2025,10,12,16:03:55.052,-1.392,12,0.0,0.0,0.6,-0.12,0.00,0.99,1.00000,0.00000,0.00000,0.00000,0.063,0.0770
2025,10,12,16:03:55.054,-1.390,14,0.0,0.0,0.6,-0.12,0.00,0.99,1.00000,0.00000,0.00000,0.00000,0.063,0.0800
2025,10,12,16:03:55.056,-1.388,16,0.0,0.0,0.7,-0.12,0.00,0.98,1.00000,0.00000,0.00000,0.00003,0.064,0.0820
2025,10,12,16:03:55.058,-1.386,18,0.0,0.0,0.6,-0.12,0.00,0.99,1.00000,0.00000,0.00000,0.00003,0.063,0.0800
2025,10,12,16:03:55.060,-1.384,20,0.0,0.0,0.6,-0.12,0.00,0.99,1.00000,0.00000,0.00000,0.00003,0.064,0.0790
2025,10,12,16:03:55.062,-1.382,22,0.0,0.0,0.6,-0.12,0.00,0.98,1.00000,0.00000,0.00000,0.00007,0.064,0.0790
2025,10,12,16:03:55.064,-1.380,24,0.1,0.0,0.6,-0.12,0.00,0.99,1.00000,0.00000,0.00000,0.00007,0.063,0.0840
2025,10,12,16:03:55.066,-1.378,26,0.0,0.0,0.6,-0.12,0.00,0.98,1.00000,0.00000,0.00000,0.00007,0.064,0.0790
2025,10,12,16:03:55.068,-1.376,28,0.1,0.0,0.6,-0.12,0.00,0.99,1.00000,0.00000,0.00000,0.00010,0.063,0.0790
2025,10,12,16:03:55.070,-1.374,30,0.0,0.0,0.6,-0.12,0.00,0.99,1.00000,0.00000,0.00000,0.00010,0.064,0.0800
2025,10,12,16:03:55.072,-1.372,32,0.0,0.0,0.4,-0.12,0.00,0.99,1.00000,0.00000,0.00000,0.00010,0.064,0.0770
2025,10,12,16:03:55.074,-1.370,34,0.0,0.0,0.4,-0.12,0.00,0.99,1.00000,0.00000,0.00000,0.00010,0.063,0.0800
2025,10,12,16:03:55.076,-1.368,36,0.0,0.0,0.6,-0.12,0.00,0.99,1.00000,0.00000,0.00000,0.00013,0.064,0.0790
2025,10,12,16:03:55.078,-1.366,38,0.0,0.1,0.2,-0.12,0.00,0.99,1.00000,0.00000,0.00000,0.00013,0.064,0.0790
2025,10,12,16:03:55.080,-1.364,40,0.1,0.0,0.3,-0.12,0.01,0.99,1.00000,0.00000,0.00000,0.00013,0.063,0.0800
2025,10,12,16:03:55.082,-1.362,42,0.1,0.1,0.3,-0.12,0.01,0.99,1.00000,0.00000,0.00000,0.00013,0.063,0.0820
2025,10,12,16:03:55.084,-1.360,44,0.0,0.0,0.3,-0.12,0.01,0.99,1.00000,0.00000,0.00000,0.00013,0.063,0.0800
2025,10,12,16:03:55.086,-1.358,46,0.0,0.0,0.2,-0.12,0.01,0.99,1.00000,0.00000,0.00000,0.00017,0.063,0.0770
2025,10,12,16:03:55.088,-1.356,48,0.1,0.0,0.3,-0.12,0.01,0.99,1.00000,0.00000,0.00000,0.00017,0.064,0.0770
2025,10,12,16:03:55.090,-1.354,50,0.1,0.0,0.3,-0.12,0.01,0.99,1.00000,0.00000,0.00000,0.00017,0.064,0.0770
2025,10,12,16:03:55.092,-1.352,52,0.1,0.0,0.2,-0.12,0.01,0.99,1.00000,0.00000,0.00000,0.00017,0.063,0.0770
2025,10,12,16:03:55.094,-1.350,54,0.1,0.0,0.2,-0.12,0.01,0.99,1.00000,0.00000,0.00000,0.00017,0.063,0.0790
2025,10,12,16:03:55.096,-1.348,56,0.1,0.0,0.3,-0.13,0.01,0.99,1.00000,0.00000,0.00000,0.00017,0.063,0.0770
2025,10,12,16:03:55.098,-1.346,58,0.1,0.0,0.2,-0.12,0.01,0.99,1.00000,0.00000,0.00000,0.00017,0.063,0.0790
2025,10,12,16:03:55.100,-1.344,60,0.1,0.0,0.2,-0.12,0.01,0.99,1.00000,0.00000,0.00000,0.00020,0.064,0.0790
2025,10,12,16:03:55.102,-1.342,62,0.1,0.1,0.3,-0.12,0.01,0.99,1.00000,0.00000,0.00000,0.00020,0.064,0.0790
2025,10,12,16:03:55.104,-1.340,64,0.0,0.1,0.2,-0.13,0.01,0.99,1.00000,0.00000,0.00000,0.00020,0.063,0.0800
2025,10,12,16:03:55.106,-1.338,66,0.1,0.0,0.3,-0.13,0.01,0.99,1.00000,0.00000,0.00000,0.00020,0.064,0.0800
2025,10,12,16:03:55.108,-1.336,68,0.0,0.0,0.2,-0.13,0.01,0.99,1.00000,0.00000,0.00000,0.00020,0.063,0.0790
2025,10,12,16:03:55.110,-1.334,70,0.1,0.0,0.3,-0.13,0.01,0.99,1.00000,0.00000,0.00000,0.00020,0.063,0.0790
2025,10,12,16:03:55.112,-1.332,72,0.2,0.1,0.3,-0.13,0.01,0.99,1.00000,0.00003,0.00000,0.00023,0.063,0.0790
2025,10,12,16:03:55.114,-1.330,74,0.1,0.1,0.3,-0.13,0.01,0.99,1.00000,0.00003,0.00000,0.00023,0.064,0.0790
2025,10,12,16:03:55.116,-1.328,76,0.1,0.1,0.3,-0.13,0.01,0.99,1.00000,0.00003,0.00003,0.00023,0.063,0.0770
2025,10,12,16:03:55.118,-1.326,78,0.1,0.0,0.3,-0.13,0.01,0.99,1.00000,0.00003,0.00003,0.00023,0.064,0.0800
2025,10,12,16:03:55.120,-1.324,80,0.0,0.0,0.3,-0.13,0.01,0.99,1.00000,0.00003,0.00003,0.00023,0.063,0.0790
2025,10,12,16:03:55.122,-1.322,82,0.0,0.1,0.2,-0.13,0.01,0.98,1.00000,0.00003,0.00003,0.00023,0.064,0.0800
2025,10,12,16:03:55.124,-1.320,84,0.0,0.1,0.3,-0.13,0.01,0.98,1.00000,0.00003,0.00003,0.00027,0.064,0.0760
2025,10,12,16:03:55.126,-1.318,86,0.1,0.1,0.2,-0.13,0.01,0.99,1.00000,0.00003,0.00003,0.00027,0.063,0.0800
2025,10,12,16:03:55.128,-1.316,88,0.2,0.0,0.3,-0.13,0.01,0.99,1.00000,0.00003,0.00003,0.00027,0.064,0.0770
2025,10,12,16:03:55.130,-1.314,90,0.1,0.1,0.2,-0.13,0.01,0.98,1.00000,0.00003,0.00003,0.00027,0.063,0.0770
2025,10,12,16:03:55.132,-1.312,92,0.1,0.1,0.2,-0.13,0.01,0.98,1.00000,0.00003,0.00003,0.00027,0.063,0.0790
2025,10,12,16:03:55.134,-1.310,94,0.1,0.1,0.0,-0.13,0.01,0.98,1.00000,0.00003,0.00003,0.00027,0.063,0.0760
2025,10,12,16:03:55.136,-1.308,96,0.1,0.1,0.2,-0.13,0.01,0.98,1.00000,0.00003,0.00003,0.00027,0.063,0.0770
2025,10,12,16:03:55.138,-1.306,98,0.1,0.1,0.2,-0.13,0.01,0.98,1.00000,0.00003,0.00003,0.00027,0.063,0.0800
2025,10,12,16:03:55.140,-1.304,100,0.1,0.0,0.0,-0.13,0.01,0.98,1.00000,0.00003,0.00003,0.00027,0.063,0.0770
2025,10,12,16:03:55.142,-1.302,102,0.1,0.0,0.0,-0.13,0.01,0.98,1.00000,0.00003,0.00003,0.00027,0.063,0.0790
2025,10,12,16:03:55.144,-1.300,104,0.1,0.0,0.0,-0.13,0.01,0.98,1.00000,0.00007,0.00003,0.00027,0.063,0.0800
2025,10,12,16:03:55.146,-1.298,106,0.2,0.0,0.0,-0.13,0.01,0.98,1.00000,0.00007,0.00003,0.00027,0.063,0.0770
2025,10,12,16:03:55.148,-1.296,108,0.2,0.1,-0.2,-0.13,0.01,0.98,1.00000,0.00007,0.00007,0.00027,0.063,0.0790
2025,10,12,16:03:55.150,-1.294,110,0.2,0.0,-0.2,-0.13,0.01,0.98,1.00000,0.00007,0.00007,0.00027,0.063,0.0790
2025,10,12,16:03:55.152,-1.292,112,0.1,0.1,-0.3,-0.13,0.01,0.98,1.00000,0.00007,0.00007,0.00027,0.063,0.0800
2025,10,12,16:03:55.154,-1.290,114,0.1,0.0,-0.2,-0.13,0.01,0.98,1.00000,0.00007,0.00007,0.00027,0.063,0.0800
2025,10,12,16:03:55.156,-1.288,116,0.2,0.0,-0.3,-0.13,0.01,0.98,1.00000,0.00007,0.00007,0.00027,0.064,0.0800
2025,10,12,16:03:55.158,-1.286,118,0.1,0.1,-0.3,-0.13,0.01,0.98,1.00000,0.00007,0.00007,0.00027,0.063,0.0850
2025,10,12,16:03:55.160,-1.284,120,0.2,0.0,-0.3,-0.13,0.01,0.98,1.00000,0.00007,0.00007,0.00023,0.063,0.0800
2025,10,12,16:03:55.162,-1.282,122,0.2,0.0,-0.4,-0.13,0.01,0.98,1.00000,0.00010,0.00007,0.00023,0.063,0.0820
2025,10,12,16:03:55.164,-1.280,124,0.2,0.0,-0.3,-0.13,0.02,0.98,1.00000,0.00010,0.00007,0.00023,0.064,0.0790
2025,10,12,16:03:55.166,-1.278,126,0.1,0.0,-0.4,-0.13,0.01,0.98,1.00000,0.00010,0.00007,0.00023,0.063,0.0790
2025,10,12,16:03:55.168,-1.276,128,0.1,0.0,-0.4,-0.13,0.01,0.98,1.00000,0.00010,0.00007,0.00020,0.063,0.0770
2025,10,12,16:03:55.170,-1.274,130,0.1,0.0,-0.4,-0.13,0.01,0.98,1.00000,0.00010,0.00007,0.00020,0.063,0.0790
2025,10,12,16:03:55.172,-1.272,132,0.1,0.0,-0.4,-0.13,0.02,0.98,1.00000,0.00010,0.00007,0.00020,0.063,0.0820
2025,10,12,16:03:55.174,-1.270,134,0.2,0.1,-0.3,-0.13,0.02,0.98,1.00000,0.00010,0.00007,0.00020,0.063,0.0770
2025,10,12,16:03:55.176,-1.268,136,0.2,0.1,-0.4,-0.13,0.02,0.99,1.00000,0.00010,0.00007,0.00020,0.063,0.0760
2025,10,12,16:03:55.178,-1.266,138,0.1,0.0,-0.3,-0.13,0.02,0.99,1.00000,0.00010,0.00007,0.00017,0.063,0.0820
2025,10,12,16:03:55.180,-1.264,140,0.2,0.0,-0.3,-0.13,0.02,0.98,1.00000,0.00010,0.00007,0.00017,0.064,0.0790
2025,10,12,16:03:55.182,-1.262,142,0.2,0.0,-0.2,-0.13,0.02,0.98,1.00000,0.00013,0.00007,0.00017,0.063,0.0790
2025,10,12,16:03:55.184,-1.260,144,0.1,0.0,-0.2,-0.13,0.02,0.98,1.00000,0.00013,0.00007,0.00017,0.063,0.0790
2025,10,12,16:03:55.186,-1.258,146,0.2,0.1,-0.2,-0.13,0.02,0.99,1.00000,0.00013,0.00007,0.00017,0.064,0.0790
2025,10,12,16:03:55.188,-1.256,148,0.1,0.0,0.0,-0.13,0.02,0.99,1.00000,0.00013,0.00007,0.00017,0.064,0.0790
2025,10,12,16:03:55.190,-1.254,150,0.1,0.0,0.0,-0.13,0.02,0.99,1.00000,0.00013,0.00007,0.00017,0.063,0.0770
2025,10,12,16:03:55.192,-1.252,152,0.1,0.0,0.0,-0.13,0.02,0.99,1.00000,0.00000,0.00000,0.00000,0.064,0.0770
2025,10,12,16:03:55.194,-1.250,154,0.1,0.0,0.2,-0.13,0.02,0.99,1.00000,0.00000,0.00000,0.00000,0.064,0.0800
2025,10,12,16:03:55.196,-1.248,156,0.1,0.0,0.2,-0.14,0.02,0.99,1.00000,0.00000,0.00000,0.00000,0.064,0.0760
2025,10,12,16:03:55.198,-1.246,158,0.1,0.0,0.3,-0.13,0.02,0.98,1.00000,0.00000,0.00000,0.00000,0.063,0.0770
2025,10,12,16:03:55.200,-1.244,160,0.0,0.0,0.4,-0.14,0.02,0.99,1.00000,0.00000,0.00000,0.00000,0.064,0.0790
2025,10,12,16:03:55.202,-1.242,162,0.0,0.0,0.4,-0.13,0.02,0.99,1.00000,0.00000,0.00000,0.00000,0.064,0.0820
2025,10,12,16:03:55.204,-1.240,164,0.1,0.0,0.6,-0.13,0.02,0.99,1.00000,0.00000,0.00000,0.00003,0.064,0.0800
2025,10,12,16:03:55.206,-1.238,166,0.0,0.0,0.7,-0.14,0.02,0.99,1.00000,0.00000,0.00000,0.00003,0.064,0.0790
2025,10,12,16:03:55.208,-1.236,168,0.0,0.0,0.7,-0.14,0.02,0.99,1.00000,0.00000,0.00000,0.00007,0.063,0.0800
2025,10,12,16:03:55.210,-1.234,170,0.0,0.0,0.9,-0.14,0.02,0.99,1.00000,0.00000,0.00000,0.00007,0.063,0.0840
2025,10,12,16:03:55.212,-1.232,172,0.0,0.0,1.0,-0.14,0.02,0.99,1.00000,0.00000,0.00000,0.00010,0.064,0.0800
2025,10,12,16:03:55.214,-1.230,174,0.0,0.0,0.9,-0.14,0.02,0.99,1.00000,0.00000,0.00000,0.00010,0.063,0.0790
2025,10,12,16:03:55.216,-1.228,176,0.0,0.0,1.0,-0.14,0.02,0.99,1.00000,0.00000,0.00000,0.00013,0.063,0.0770
2025,10,12,16:03:55.218,-1.226,178,0.0,0.0,1.0,-0.14,0.02,0.99,1.00000,0.00000,0.00000,0.00013,0.063,0.0790
2025,10,12,16:03:55.220,-1.224,180,-0.1,0.0,1.1,-0.14,0.02,0.99,1.00000,0.00000,0.00000,0.00017,0.064,0.0800
2025,10,12,16:03:55.222,-1.222,182,0.0,0.0,1.0,-0.14,0.02,0.99,1.00000,0.00000,0.00000,0.00017,0.063,0.0800
2025,10,12,16:03:55.224,-1.220,184,0.0,0.0,1.1,-0.13,0.02,0.98,1.00000,0.00000,0.00000,0.00020,0.064,0.0800
2025,10,12,16:03:55.226,-1.218,186,0.0,0.0,1.0,-0.13,0.02,0.98,1.00000,0.00000,0.00000,0.00023,0.064,0.0770
2025,10,12,16:03:55.228,-1.216,188,-0.1,0.0,1.1,-0.14,0.02,0.99,1.00000,0.00000,0.00000,0.00023,0.063,0.0800
2025,10,12,16:03:55.230,-1.214,190,0.0,0.0,1.0,-0.14,0.02,0.99,1.00000,0.00000,0.00000,0.00027,0.063,0.0790
2025,10,12,16:03:55.232,-1.212,192,0.0,0.0,1.0,-0.14,0.02,0.99,1.00000,0.00000,0.00000,0.00027,0.064,0.0760
2025,10,12,16:03:55.234,-1.210,194,0.0,0.0,0.9,-0.13,0.02,0.98,1.00000,0.00000,0.00000,0.00030,0.063,0.0800
2025,10,12,16:03:55.236,-1.208,196,0.0,0.0,0.9,-0.14,0.02,0.98,1.00000,0.00000,0.00000,0.00030,0.064,0.0790
2025,10,12,16:03:55.238,-1.206,198,0.0,0.0,0.7,-0.14,0.02,0.98,1.00000,0.00000,0.00000,0.00033,0.063,0.0790
2025,10,12,16:03:55.240,-1.204,200,0.0,0.0,0.9,-0.14,0.02,0.98,1.00000,0.00000,0.00000,0.00033,0.064,0.0790
2025,10,12,16:03:55.242,-1.202,202,0.0,0.0,0.7,-0.14,0.02,0.98,1.00000,0.00000,0.00000,0.00037,0.063,0.0770
2025,10,12,16:03:55.244,-1.200,204,-0.1,0.0,0.7,-0.14,0.02,0.98,1.00000,0.00000,0.00000,0.00037,0.063,0.0800
2025,10,12,16:03:55.246,-1.198,206,0.0,0.0,0.7,-0.13,0.02,0.98,1.00000,0.00000,0.00000,0.00037,0.063,0.0790
2025,10,12,16:03:55.248,-1.196,208,0.1,0.0,0.4,-0.13,0.02,0.98,1.00000,0.00000,0.00000,0.00040,0.063,0.0740
2025,10,12,16:03:55.250,-1.194,210,0.0,0.0,0.6,-0.13,0.02,0.98,1.00000,0.00000,0.00000,0.00040,0.064,0.0770
2025,10,12,16:03:55.252,-1.192,212,0.0,0.0,0.4,-0.13,0.02,0.98,0.99997,0.00000,0.00000,0.00040,0.063,0.0800
2025,10,12,16:03:55.254,-1.190,214,-0.1,0.0,0.3,-0.13,0.02,0.98,0.99997,0.00000,0.00000,0.00040,0.063,0.0790
2025,10,12,16:03:55.256,-1.188,216,0.0,-0.2,0.3,-0.13,0.02,0.98,0.99997,0.00000,0.00000,0.00043,0.063,0.0820
2025,10,12,16:03:55.258,-1.186,218,0.0,0.0,0.2,-0.13,0.02,0.98,0.99997,0.00000,0.00000,0.00043,0.063,0.0790
2025,10,12,16:03:55.260,-1.184,220,0.0,-0.2,0.2,-0.13,0.02,0.98,0.99997,0.00000,0.00000,0.00043,0.063,0.0770
2025,10,12,16:03:55.262,-1.182,222,0.0,0.0,0.2,-0.13,0.02,0.98,0.99997,0.00000,0.00000,0.00043,0.063,0.0760
2025,10,12,16:03:55.264,-1.180,224,-0.1,-0.2,0.0,-0.13,0.02,0.98,0.99997,0.00000,0.00000,0.00043,0.063,0.0800
2025,10,12,16:03:55.266,-1.178,226,0.0,-0.2,0.0,-0.13,0.02,0.99,0.99997,0.00000,0.00000,0.00043,0.063,0.0760
2025,10,12,16:03:55.268,-1.176,228,0.0,0.0,0.0,-0.13,0.02,0.98,0.99997,0.00000,0.00000,0.00043,0.063,0.0760
2025,10,12,16:03:55.270,-1.174,230,0.0,-0.2,0.0,-0.13,0.02,0.98,0.99997,0.00000,0.00000,0.00043,0.064,0.0790
2025,10,12,16:03:55.272,-1.172,232,0.0,-0.2,0.0,-0.12,0.02,0.98,0.99997,0.00000,-0.00003,0.00043,0.063,0.0770
2025,10,12,16:03:55.274,-1.170,234,0.0,0.0,0.0,-0.13,0.02,0.98,0.99997,0.00000,-0.00003,0.00043,0.064,0.0820
2025,10,12,16:03:55.276,-1.168,236,0.1,0.0,0.0,-0.13,0.02,0.98,0.99997,0.00000,-0.00003,0.00043,0.063,0.0790
2025,10,12,16:03:55.278,-1.166,238,0.0,0.0,0.0,-0.12,0.02,0.98,0.99997,0.00000,-0.00003,0.00043,0.063,0.0790
2025,10,12,16:03:55.280,-1.164,240,-0.1,-0.2,0.0,-0.13,0.02,0.98,0.99997,0.00000,-0.00003,0.00043,0.064,0.0800
2025,10,12,16:03:55.282,-1.162,242,0.0,0.0,-0.2,-0.12,0.02,0.99,0.99997,0.00000,-0.00003,0.00043,0.064,0.0770
2025,10,12,16:03:55.284,-1.160,244,0.0,-0.2,0.0,-0.12,0.02,0.98,0.99997,0.00000,-0.00003,0.00043,0.063,0.0800
2025,10,12,16:03:55.286,-1.158,246,-0.1,-0.2,0.0,-0.12,0.02,0.99,0.99997,0.00000,-0.00003,0.00043,0.064,0.0790
2025,10,12,16:03:55.288,-1.156,248,-0.1,-0.2,0.0,-0.12,0.02,0.99,0.99997,0.00000,-0.00003,0.00040,0.063,0.0790
2025,10,12,16:03:55.290,-1.154,0,0.0,0.0,-0.2,-0.13,0.02,0.99,0.99997,0.00000,-0.00003,0.00040,0.063,0.0800
2025,10,12,16:03:55.292,-1.152,2,0.0,0.0,-0.2,-0.13,0.02,0.99,0.99997,0.00000,-0.00003,0.00040,0.063,0.0760
2025,10,12,16:03:55.294,-1.150,4,0.0,0.0,0.0,-0.13,0.02,0.99,0.99997,0.00000,-0.00003,0.00040,0.063,0.0800
2025,10,12,16:03:55.296,-1.148,6,-0.1,0.0,-0.2,-0.12,0.02,0.99,0.99997,0.00000,-0.00007,0.00040,0.063,0.0790
2025,10,12,16:03:55.298,-1.146,8,-0.1,0.0,-0.2,-0.13,0.02,0.99,0.99997,0.00000,-0.00007,0.00040,0.064,0.0770
2025,10,12,16:03:55.300,-1.144,10,-0.1,-0.2,-0.2,-0.12,0.02,0.99,0.99997,0.00000,-0.00007,0.00040,0.063,0.0760
2025,10,12,16:03:55.302,-1.142,12,0.1,0.0,-0.3,-0.12,0.02,0.99,0.99997,0.00000,-0.00007,0.00040,0.064,0.0790
2025,10,12,16:03:55.304,-1.140,14,0.0,0.0,0.0,-0.12,0.02,0.99,0.99997,0.00000,-0.00007,0.00040,0.063,0.0800
2025,10,12,16:03:55.306,-1.138,16,0.0,0.0,-0.2,-0.12,0.02,0.99,0.99997,0.00000,-0.00007,0.00040,0.064,0.0790
2025,10,12,16:03:55.308,-1.136,18,0.0,0.0,-0.3,-0.12,0.02,0.99,0.99997,0.00000,-0.00007,0.00037,0.063,0.0800
2025,10,12,16:03:55.310,-1.134,20,-0.1,0.0,-0.3,-0.13,0.02,0.99,0.99997,0.00000,-0.00007,0.00037,0.064,0.0790
2025,10,12,16:03:55.312,-1.132,22,-0.1,0.0,-0.3,-0.13,0.02,0.99,0.99997,0.00000,-0.00007,0.00037,0.064,0.0800
2025,10,12,16:03:55.314,-1.130,24,-0.1,0.0,-0.3,-0.13,0.02,0.99,0.99997,0.00000,-0.00007,0.00037,0.063,0.0790
2025,10,12,16:03:55.316,-1.128,26,-0.1,-0.2,-0.3,-0.12,0.01,0.99,0.99997,0.00000,-0.00007,0.00037,0.063,0.0790
2025,10,12,16:03:55.318,-1.126,28,0.0,0.0,-0.4,-0.13,0.01,0.99,0.99997,0.00000,-0.00007,0.00033,0.064,0.0770
2025,10,12,16:03:55.320,-1.124,30,0.0,-0.2,-0.3,-0.12,0.01,0.99,0.99997,0.00000,-0.00007,0.00033,0.063,0.0770
2025,10,12,16:03:55.322,-1.122,32,0.0,0.0,-0.4,-0.13,0.01,0.99,0.99997,0.00000,-0.00007,0.00033,0.063,0.0820
2025,10,12,16:03:55.324,-1.120,34,-0.1,0.0,-0.6,-0.13,0.01,0.99,0.99997,0.00000,-0.00007,0.00033,0.064,0.0800
2025,10,12,16:03:55.326,-1.118,36,0.0,0.0,-0.6,-0.12,0.01,0.99,0.99997,0.00000,-0.00010,0.00030,0.063,0.0790
2025,10,12,16:03:55.328,-1.116,38,-0.1,0.0,-0.6,-0.13,0.01,0.99,0.99997,-0.00003,-0.00010,0.00030,0.064,0.0770
2025,10,12,16:03:55.330,-1.114,40,0.0,0.0,-0.7,-0.12,0.01,0.99,0.99997,-0.00003,-0.00010,0.00030,0.063,0.0820
2025,10,12,16:03:55.332,-1.112,42,0.0,0.0,-0.7,-0.12,0.01,0.99,0.99997,-0.00003,-0.00010,0.00027,0.063,0.0820
2025,10,12,16:03:55.334,-1.110,44,0.0,0.0,-0.9,-0.12,0.01,0.99,1.00000,-0.00003,-0.00010,0.00027,0.063,0.0790
2025,10,12,16:03:55.336,-1.108,46,0.0,0.0,-0.7,-0.12,0.01,0.99,1.00000,-0.00003,-0.00010,0.00023,0.063,0.0790
2025,10,12,16:03:55.338,-1.106,48,-0.1,0.0,-0.9,-0.12,0.01,0.99,1.00000,-0.00003,-0.00010,0.00023,0.064,0.0800
2025,10,12,16:03:55.340,-1.104,50,-0.1,0.0,-0.9,-0.12,0.01,0.99,1.00000,-0.00003,-0.00010,0.00020,0.064,0.0790
2025,10,12,16:03:55.342,-1.102,52,0.1,0.0,-0.9,-0.12,0.01,0.98,1.00000,-0.00003,-0.00010,0.00020,0.063,0.0800
2025,10,12,16:03:55.344,-1.100,54,0.0,0.0,-0.7,-0.12,0.01,0.98,1.00000,-0.00003,-0.00010,0.00020,0.064,0.0840
2025,10,12,16:03:55.346,-1.098,56,-0.1,0.0,-0.9,-0.12,0.01,0.99,1.00000,-0.00003,-0.00010,0.00017,0.063,0.0790
2025,10,12,16:03:55.348,-1.096,58,0.0,0.0,-0.9,-0.12,0.01,0.98,1.00000,-0.00003,-0.00010,0.00017,0.063,0.0800
2025,10,12,16:03:55.350,-1.094,60,0.1,0.0,-0.9,-0.12,0.01,0.98,1.00000,-0.00003,-0.00010,0.00013,0.064,0.0760
2025,10,12,16:03:55.352,-1.092,62,0.0,0.0,-0.9,-0.12,0.01,0.98,1.00000,-0.00003,-0.00010,0.00013,0.063,0.0790
2025,10,12,16:03:55.354,-1.090,64,0.0,0.0,-0.7,-0.12,0.01,0.98,1.00000,-0.00003,-0.00010,0.00010,0.063,0.0790
2025,10,12,16:03:55.356,-1.088,66,0.0,0.0,-0.7,-0.12,0.01,0.99,1.00000,-0.00003,-0.00010,0.00010,0.063,0.0760
2025,10,12,16:03:55.358,-1.086,68,0.0,0.0,-0.6,-0.12,0.02,0.98,1.00000,-0.00003,-0.00010,0.00010,0.064,0.0820
2025,10,12,16:03:55.360,-1.084,70,0.1,0.0,-0.7,-0.12,0.01,0.99,1.00000,-0.00003,-0.00010,0.00007,0.063,0.0760
2025,10,12,16:03:55.362,-1.082,72,0.0,0.0,-0.6,-0.12,0.01,0.98,1.00000,-0.00003,-0.00010,0.00007,0.064,0.0720
2025,10,12,16:03:55.364,-1.080,74,0.0,0.0,-0.4,-0.12,0.02,0.99,1.00000,-0.00003,-0.00010,0.00007,0.063,0.0800
2025,10,12,16:03:55.366,-1.078,76,0.0,0.0,-0.4,-0.12,0.02,0.98,1.00000,-0.00003,-0.00010,0.00003,0.064,0.0770
2025,10,12,16:03:55.368,-1.076,78,0.0,0.0,-0.4,-0.12,0.01,0.98,1.00000,-0.00003,-0.00010,0.00003,0.063,0.0820
2025,10,12,16:03:55.370,-1.074,80,0.0,0.0,-0.3,-0.12,0.02,0.98,1.00000,-0.00003,-0.00010,0.00003,0.063,0.0800
2025,10,12,16:03:55.372,-1.072,82,0.0,0.1,-0.3,-0.12,0.02,0.98,1.00000,-0.00003,-0.00010,0.00003,0.063,0.0770
2025,10,12,16:03:55.374,-1.070,84,-0.1,0.0,-0.2,-0.12,0.02,0.99,1.00000,-0.00003,-0.00010,0.00003,0.063,0.0820
2025,10,12,16:03:55.376,-1.068,86,0.0,0.0,-0.2,-0.12,0.01,0.99,1.00000,-0.00003,-0.00010,0.00003,0.064,0.0820
2025,10,12,16:03:55.378,-1.066,88,0.0,0.0,0.0,-0.12,0.01,0.98,1.00000,-0.00003,-0.00010,0.00003,0.063,0.0770
2025,10,12,16:03:55.380,-1.064,90,-0.1,0.1,0.0,-0.12,0.02,0.98,1.00000,-0.00003,-0.00007,0.00000,0.063,0.0790
2025,10,12,16:03:55.382,-1.062,92,-0.1,0.0,0.0,-0.12,0.01,0.99,1.00000,-0.00003,-0.00007,0.00003,0.063,0.0770
2025,10,12,16:03:55.384,-1.060,94,-0.1,0.0,0.0,-0.12,0.02,0.99,1.00000,-0.00003,-0.00007,0.00003,0.063,0.0820
2025,10,12,16:03:55.386,-1.058,96,0.0,0.1,0.2,-0.12,0.02,0.99,1.00000,-0.00003,-0.00007,0.00003,0.063,0.0790
2025,10,12,16:03:55.388,-1.056,98,-0.2,0.1,0.2,-0.12,0.01,0.98,1.00000,-0.00003,-0.00007,0.00003,0.063,0.0800
2025,10,12,16:03:55.390,-1.054,100,-0.1,0.1,0.2,-0.12,0.01,0.98,1.00000,-0.00003,-0.00007,0.00003,0.063,0.0790
2025,10,12,16:03:55.392,-1.052,102,0.0,0.1,0.3,-0.12,0.01,0.99,1.00000,-0.00003,-0.00007,0.00003,0.064,0.0790
2025,10,12,16:03:55.394,-1.050,104,-0.1,0.1,0.4,-0.12,0.01,0.99,1.00000,-0.00003,-0.00007,0.00003,0.063,0.0770
2025,10,12,16:03:55.396,-1.048,106,-0.1,0.1,0.3,-0.12,0.01,0.98,1.00000,-0.00003,-0.00007,0.00007,0.064,0.0760
2025,10,12,16:03:55.398,-1.046,108,-0.1,0.1,0.3,-0.12,0.01,0.99,1.00000,-0.00003,-0.00007,0.00007,0.064,0.0760
2025,10,12,16:03:55.400,-1.044,110,-0.1,0.1,0.4,-0.12,0.01,0.99,1.00000,-0.00007,-0.00007,0.00007,0.064,0.0800
2025,10,12,16:03:55.402,-1.042,112,-0.1,0.1,0.4,-0.13,0.01,0.99,1.00000,-0.00007,-0.00007,0.00007,0.063,0.0770
2025,10,12,16:03:55.404,-1.040,114,-0.1,0.1,0.3,-0.13,0.01,0.99,1.00000,-0.00007,-0.00003,0.00007,0.063,0.0790
2025,10,12,16:03:55.406,-1.038,116,-0.1,0.1,0.4,-0.13,0.01,0.99,1.00000,-0.00007,-0.00003,0.00010,0.064,0.0800
2025,10,12,16:03:55.408,-1.036,118,-0.1,0.0,0.3,-0.13,0.01,0.99,1.00000,-0.00007,-0.00003,0.00010,0.064,0.0790
2025,10,12,16:03:55.410,-1.034,120,-0.1,0.1,0.3,-0.13,0.01,0.99,1.00000,-0.00007,-0.00003,0.00010,0.064,0.0790
2025,10,12,16:03:55.412,-1.032,122,-0.1,0.1,0.3,-0.13,0.01,0.99,1.00000,-0.00007,-0.00003,0.00010,0.063,0.0800
2025,10,12,16:03:55.414,-1.030,124,0.0,0.1,0.3,-0.13,0.01,0.99,1.00000,-0.00007,-0.00003,0.00010,0.064,0.0790
2025,10,12,16:03:55.416,-1.028,126,0.0,0.3,0.2,-0.13,0.01,0.99,1.00000,-0.00007,-0.00003,0.00013,0.063,0.0760
2025,10,12,16:03:55.418,-1.026,128,0.0,0.1,0.2,-0.13,0.01,0.99,1.00000,-0.00007,-0.00003,0.00013,0.063,0.0770
2025,10,12,16:03:55.420,-1.024,130,0.0,0.1,0.0,-0.13,0.01,0.99,1.00000,-0.00007,-0.00003,0.00013,0.063,0.0820
2025,10,12,16:03:55.422,-1.022,132,0.0,0.1,0.0,-0.13,0.01,0.99,1.00000,-0.00007,-0.00003,0.00013,0.063,0.0800
2025,10,12,16:03:55.424,-1.020,134,-0.1,0.1,0.0,-0.13,0.01,0.99,1.00000,-0.00007,-0.00003,0.00013,0.064,0.0770
2025,10,12,16:03:55.426,-1.018,136,0.0,0.1,0.0,-0.13,0.01,0.99,1.00000,-0.00007,0.00000,0.00013,0.064,0.0800
2025,10,12,16:03:55.428,-1.016,138,0.0,0.0,-0.2,-0.13,0.01,0.99,1.00000,-0.00007,0.00000,0.00013,0.064,0.0820
2025,10,12,16:03:55.430,-1.014,140,0.0,0.0,-0.2,-0.14,0.01,0.99,1.00000,-0.00007,0.00000,0.00010,0.063,0.0770
2025,10,12,16:03:55.432,-1.012,142,0.0,0.1,-0.3,-0.13,0.01,0.99,1.00000,-0.00007,0.00000,0.00010,0.064,0.0770
2025,10,12,16:03:55.434,-1.010,144,0.1,0.1,-0.3,-0.14,0.01,0.99,1.00000,-0.00007,0.00000,0.00010,0.064,0.0800
2025,10,12,16:03:55.436,-1.008,146,0.1,0.0,-0.4,-0.13,0.01,0.99,1.00000,-0.00007,0.00000,0.00010,0.063,0.0770
2025,10,12,16:03:55.438,-1.006,148,0.0,0.1,-0.4,-0.14,0.01,0.99,1.00000,-0.00007,0.00000,0.00010,0.064,0.0800
2025,10,12,16:03:55.440,-1.004,150,0.0,0.1,-0.4,-0.13,0.01,0.99,1.00000,-0.00007,0.00000,0.00007,0.064,0.0790
2025,10,12,16:03:55.442,-1.002,152,0.1,0.1,-0.4,-0.14,0.01,0.99,1.00000,-0.00007,0.00000,0.00007,0.064,0.0820
2025,10,12,16:03:55.444,-1.000,154,0.0,0.1,-0.6,-0.14,0.01,0.98,1.00000,-0.00007,0.00000,0.00007,0.063,0.0790
2025,10,12,16:03:55.446,-0.998,156,0.0,0.0,-0.6,-0.14,0.01,0.98,1.00000,-0.00007,0.00000,0.00003,0.063,0.0800
2025,10,12,16:03:55.448,-0.996,158,0.0,0.0,-0.6,-0.13,0.01,0.99,1.00000,-0.00007,0.00000,0.00003,0.064,0.0790
2025,10,12,16:03:55.450,-0.994,160,0.0,0.0,-0.7,-0.13,0.01,0.98,1.00000,-0.00007,0.00000,0.00003,0.064,0.0760
2025,10,12,16:03:55.452,-0.992,162,0.0,0.1,-0.7,-0.13,0.01,0.99,1.00000,-0.00007,0.00000,0.00000,0.063,0.0800
2025,10,12,16:03:55.454,-0.990,164,0.1,0.0,-0.6,-0.14,0.01,0.99,1.00000,-0.00007,0.00000,0.00000,0.064,0.0790
2025,10,12,16:03:55.456,-0.988,166,0.0,0.0,-0.7,-0.13,0.01,0.98,1.00000,-0.00007,0.00000,0.00000,0.064,0.0800
2025,10,12,16:03:55.458,-0.986,168,0.2,0.1,-0.7,-0.13,0.01,0.98,1.00000,-0.00007,0.00000,0.00000,0.064,0.0770
2025,10,12,16:03:55.460,-0.984,170,0.0,0.0,-0.7,-0.13,0.02,0.98,1.00000,-0.00007,0.00000,0.00000,0.063,0.0770
2025,10,12,16:03:55.462,-0.982,172,0.0,0.0,-0.7,-0.13,0.01,0.99,1.00000,-0.00007,0.00000,-0.00003,0.063,0.0800
2025,10,12,16:03:55.464,-0.980,174,0.0,0.0,-0.7,-0.13,0.01,0.98,1.00000,-0.00007,0.00000,-0.00003,0.064,0.0800
2025,10,12,16:03:55.466,-0.978,176,0.0,0.0,-0.6,-0.14,0.01,0.98,1.00000,-0.00007,0.00000,-0.00003,0.063,0.0770
2025,10,12,16:03:55.468,-0.976,178,0.0,0.1,-0.4,-0.13,0.01,0.98,1.00000,-0.00007,0.00000,-0.00007,0.063,0.0800
2025,10,12,16:03:55.470,-0.974,180,0.1,0.0,-0.6,-0.13,0.01,0.98,1.00000,-0.00007,0.00000,-0.00007,0.063,0.0770
2025,10,12,16:03:55.472,-0.972,182,0.0,0.0,-0.6,-0.13,0.01,0.98,1.00000,-0.00007,0.00000,-0.00007,0.063,0.0770
2025,10,12,16:03:55.474,-0.970,184,0.0,0.0,-0.6,-0.13,0.02,0.98,1.00000,-0.00007,0.00000,-0.00007,0.064,0.0760
2025,10,12,16:03:55.476,-0.968,186,0.0,0.0,-0.4,-0.14,0.01,0.98,1.00000,-0.00007,0.00000,-0.00010,0.063,0.0770
2025,10,12,16:03:55.478,-0.966,188,0.0,0.0,-0.3,-0.14,0.01,0.98,1.00000,-0.00007,0.00000,-0.00010,0.064,0.0800
2025,10,12,16:03:55.480,-0.964,190,0.0,0.0,-0.4,-0.14,0.01,0.98,1.00000,-0.00007,0.00000,-0.00010,0.063,0.0800
2025,10,12,16:03:55.482,-0.962,192,0.0,0.0,-0.4,-0.14,0.01,0.98,1.00000,-0.00007,0.00000,-0.00010,0.064,0.0800
2025,10,12,16:03:55.484,-0.960,194,0.0,0.0,-0.4,-0.14,0.01,0.98,1.00000,-0.00007,0.00000,-0.00013,0.064,0.0800
2025,10,12,16:03:55.486,-0.958,196,0.0,0.0,-0.3,-0.14,0.01,0.98,1.00000,-0.00007,0.00000,-0.00013,0.063,0.0790
2025,10,12,16:03:55.488,-0.956,198,0.0,0.0,-0.3,-0.14,0.01,0.98,1.00000,-0.00007,0.00000,-0.00013,0.063,0.0800
2025,10,12,16:03:55.490,-0.954,200,-0.1,0.0,-0.3,-0.14,0.01,0.98,1.00000,-0.00007,0.00000,-0.00013,0.063,0.0740
2025,10,12,16:03:55.492,-0.952,202,0.1,0.0,-0.3,-0.14,0.01,0.99,1.00000,-0.00007,0.00000,-0.00013,0.064,0.0790
2025,10,12,16:03:55.494,-0.950,204,0.0,0.0,-0.4,-0.14,0.01,0.98,1.00000,-0.00007,0.00000,-0.00017,0.064,0.0770
2025,10,12,16:03:55.496,-0.948,206,0.1,0.0,-0.3,-0.14,0.01,0.98,1.00000,-0.00007,0.00000,-0.00017,0.063,0.0790
2025,10,12,16:03:55.498,-0.946,208,0.0,0.0,-0.2,-0.14,0.01,0.99,1.00000,-0.00007,0.00000,-0.00017,0.063,0.0790
2025,10,12,16:03:55.500,-0.944,210,0.0,0.0,-0.2,-0.14,0.01,0.98,1.00000,-0.00007,0.00000,-0.00017,0.063,0.0800
2025,10,12,16:03:55.502,-0.942,212,0.1,0.0,-0.2,-0.14,0.01,0.99,1.00000,-0.00007,0.00000,-0.00017,0.063,0.0790
2025,10,12,16:03:55.504,-0.940,214,0.0,0.0,-0.2,-0.14,0.01,0.98,1.00000,-0.00007,0.00000,-0.00017,0.063,0.0790
2025,10,12,16:03:55.506,-0.938,216,0.1,0.0,0.0,-0.14,0.01,0.99,1.00000,-0.00007,0.00000,-0.00017,0.063,0.0800
2025,10,12,16:03:55.508,-0.936,218,0.0,0.0,-0.2,-0.14,0.01,0.98,1.00000,-0.00007,0.00000,-0.00017,0.063,0.0790
2025,10,12,16:03:55.510,-0.934,220,0.1,0.0,-0.2,-0.14,0.01,0.98,1.00000,-0.00007,0.00000,-0.00017,0.063,0.0800
2025,10,12,16:03:55.512,-0.932,222,0.1,0.0,0.0,-0.14,0.01,0.99,1.00000,-0.00003,0.00000,-0.00017,0.064,0.0790
2025,10,12,16:03:55.514,-0.930,224,0.1,0.0,0.0,-0.14,0.01,0.99,1.00000,-0.00003,0.00000,-0.00017,0.063,0.0800
2025,10,12,16:03:55.516,-0.928,226,0.1,0.0,0.0,-0.14,0.01,0.99,1.00000,-0.00003,0.00000,-0.00017,0.063,0.0800
2025,10,12,16:03:55.518,-0.926,228,-0.1,0.0,0.0,-0.14,0.01,0.99,1.00000,-0.00003,0.00000,-0.00017,0.063,0.0790
2025,10,12,16:03:55.520,-0.924,230,0.1,0.0,0.2,-0.14,0.01,0.99,1.00000,-0.00003,0.00000,-0.00017,0.064,0.0790
2025,10,12,16:03:55.522,-0.922,232,0.1,0.0,0.0,-0.14,0.01,0.98,1.00000,-0.00003,0.00000,-0.00017,0.064,0.0800
2025,10,12,16:03:55.524,-0.920,234,0.0,0.0,0.0,-0.14,0.01,0.99,1.00000,-0.00003,0.00000,-0.00017,0.064,0.0770
2025,10,12,16:03:55.526,-0.918,236,0.1,-0.2,0.0,-0.14,0.01,0.98,1.00000,-0.00003,0.00000,-0.00017,0.063,0.0820
2025,10,12,16:03:55.528,-0.916,238,0.1,0.0,0.2,-0.14,0.01,0.99,1.00000,-0.00003,0.00000,-0.00017,0.064,0.0800
2025,10,12,16:03:55.530,-0.914,240,0.0,0.0,0.2,-0.14,0.01,0.98,1.00000,-0.00003,0.00000,-0.00017,0.064,0.0820
2025,10,12,16:03:55.532,-0.912,242,0.1,0.0,0.3,-0.14,0.01,0.99,1.00000,-0.00003,0.00000,-0.00017,0.063,0.0770
2025,10,12,16:03:55.534,-0.910,244,0.0,0.0,0.3,-0.13,0.01,0.98,1.00000,-0.00003,0.00000,-0.00017,0.063,0.0790
2025,10,12,16:03:55.536,-0.908,246,-0.1,0.0,0.3,-0.13,0.01,0.99,1.00000,-0.00003,0.00000,-0.00013,0.063,0.0800
2025,10,12,16:03:55.538,-0.906,248,0.0,0.0,0.3,-0.13,0.01,0.98,1.00000,-0.00003,0.00000,-0.00013,0.063,0.0820
2025,10,12,16:03:55.540,-0.904,0,0.0,-0.2,0.4,-0.14,0.01,0.99,1.00000,-0.00003,0.00000,-0.00013,0.063,0.0790
2025,10,12,16:03:55.542,-0.902,2,0.0,-0.2,0.4,-0.13,0.01,0.99,1.00000,-0.00003,0.00000,-0.00013,0.063,0.0770
2025,10,12,16:03:55.544,-0.900,4,0.0,0.0,0.4,-0.13,0.01,0.99,1.00000,-0.00003,0.00000,-0.00010,0.063,0.0770
2025,10,12,16:03:55.546,-0.898,6,0.0,-0.2,0.6,-0.13,0.01,0.98,1.00000,-0.00003,0.00000,-0.00010,0.064,0.0790
2025,10,12,16:03:55.548,-0.896,8,0.0,0.0,0.7,-0.13,0.01,0.98,1.00000,-0.00003,0.00000,-0.00010,0.063,0.0820
2025,10,12,16:03:55.550,-0.894,10,0.1,-0.2,0.6,-0.13,0.01,0.98,1.00000,-0.00003,-0.00003,-0.00007,0.064,0.0820
2025,10,12,16:03:55.552,-0.892,12,-0.1,0.0,0.7,-0.13,0.02,0.98,1.00000,-0.00003,-0.00003,-0.00007,0.063,0.0820
2025,10,12,16:03:55.554,-0.890,14,0.0,0.0,0.9,-0.13,0.02,0.98,1.00000,-0.00003,-0.00003,-0.00003,0.063,0.0790
2025,10,12,16:03:55.556,-0.888,16,0.0,-0.2,0.9,-0.13,0.01,0.98,1.00000,-0.00003,-0.00003,-0.00003,0.063,0.0790
2025,10,12,16:03:55.558,-0.886,18,0.0,-0.2,0.9,-0.13,0.01,0.99,1.00000,-0.00003,-0.00003,0.00000,0.063,0.0800
2025,10,12,16:03:55.560,-0.884,20,-0.1,0.0,1.0,-0.13,0.01,0.98,1.00000,-0.00003,-0.00003,0.00000,0.063,0.0790
2025,10,12,16:03:55.562,-0.882,22,0.0,0.0,0.9,-0.13,0.01,0.99,1.00000,-0.00003,-0.00003,0.00000,0.063,0.0790
2025,10,12,16:03:55.564,-0.880,24,-0.1,0.0,1.0,-0.13,0.01,0.99,1.00000,-0.00003,-0.00003,0.00000,0.063,0.0770
2025,10,12,16:03:55.566,-0.878,26,0.0,0.0,1.1,-0.13,0.01,0.98,1.00000,-0.00003,-0.00003,0.00003,0.063,0.0790
2025,10,12,16:03:55.568,-0.876,28,0.0,0.0,1.0,-0.13,0.01,0.98,1.00000,-0.00003,-0.00003,0.00003,0.063,0.0770
2025,10,12,16:03:55.570,-0.874,30,-0.1,-0.2,1.1,-0.13,0.01,0.98,1.00000,-0.00003,-0.00003,0.00007,0.063,0.0790
2025,10,12,16:03:55.572,-0.872,32,0.0,0.0,1.1,-0.13,0.01,0.98,1.00000,-0.00003,-0.00003,0.00010,0.063,0.0770
2025,10,12,16:03:55.574,-0.870,34,0.0,0.0,1.0,-0.13,0.01,0.98,1.00000,-0.00003,-0.00003,0.00010,0.063,0.0820
2025,10,12,16:03:55.576,-0.868,36,-0.1,0.0,1.1,-0.13,0.01,0.99,1.00000,-0.00007,-0.00003,0.00013,0.063,0.0760
2025,10,12,16:03:55.578,-0.866,38,-0.1,-0.2,1.1,-0.13,0.01,0.98,1.00000,-0.00007,-0.00007,0.00013,0.064,0.0800
2025,10,12,16:03:55.580,-0.864,40,0.0,0.0,1.0,-0.13,0.01,0.98,1.00000,-0.00007,-0.00007,0.00017,0.064,0.0790
2025,10,12,16:03:55.582,-0.862,42,0.0,0.0,1.0,-0.13,0.01,0.99,1.00000,-0.00007,-0.00007,0.00020,0.063,0.0800
2025,10,12,16:03:55.584,-0.860,44,0.0,-0.2,1.1,-0.13,0.01,0.99,1.00000,-0.00007,-0.00007,0.00020,0.063,0.0770
2025,10,12,16:03:55.586,-0.858,46,0.0,0.0,1.0,-0.13,0.01,0.99,1.00000,-0.00007,-0.00007,0.00023,0.063,0.0800
2025,10,12,16:03:55.588,-0.856,48,0.0,-0.2,1.0,-0.13,0.01,0.98,1.00000,-0.00007,-0.00007,0.00023,0.064,0.0820
2025,10,12,16:03:55.590,-0.854,50,0.0,0.0,1.0,-0.13,0.01,0.99,1.00000,-0.00007,-0.00007,0.00027,0.063,0.0770
2025,10,12,16:03:55.592,-0.852,52,0.0,-0.2,0.9,-0.13,0.01,0.99,1.00000,-0.00007,-0.00007,0.00027,0.063,0.0840
2025,10,12,16:03:55.594,-0.850,54,0.1,-0.2,0.9,-0.13,0.01,0.98,1.00000,-0.00007,-0.00007,0.00030,0.063,0.0760
2025,10,12,16:03:55.596,-0.848,56,0.0,-0.2,0.7,-0.12,0.01,0.99,1.00000,-0.00007,-0.00007,0.00030,0.063,0.0770
2025,10,12,16:03:55.598,-0.846,58,0.1,-0.2,0.6,-0.12,0.01,0.99,1.00000,-0.00007,-0.00010,0.00033,0.063,0.0840
2025,10,12,16:03:55.600,-0.844,60,0.1,0.0,0.7,-0.12,0.01,0.99,1.00000,-0.00003,-0.00010,0.00033,0.064,0.0790
2025,10,12,16:03:55.602,-0.842,62,0.0,0.0,0.4,-0.12,0.01,0.99,1.00000,-0.00003,-0.00010,0.00033,0.063,0.0790
2025,10,12,16:03:55.604,-0.840,64,0.1,0.0,0.4,-0.12,0.01,0.98,1.00000,-0.00003,-0.00010,0.00033,0.063,0.0790
2025,10,12,16:03:55.606,-0.838,66,0.1,0.0,0.3,-0.12,0.01,0.99,1.00000,-0.00003,-0.00010,0.00037,0.063,0.0760
2025,10,12,16:03:55.608,-0.836,68,0.0,0.0,0.3,-0.12,0.01,0.99,1.00000,-0.00003,-0.00010,0.00037,0.063,0.0820
2025,10,12,16:03:55.610,-0.834,70,0.1,0.0,0.2,-0.12,0.01,0.99,1.00000,-0.00003,-0.00010,0.00037,0.064,0.0820
2025,10,12,16:03:55.612,-0.832,72,0.1,0.0,0.2,-0.12,0.01,0.99,1.00000,-0.00003,-0.00010,0.00037,0.063,0.0800
2025,10,12,16:03:55.614,-0.830,74,0.1,0.0,0.2,-0.12,0.01,0.99,1.00000,-0.00003,-0.00010,0.00037,0.063,0.0770
2025,10,12,16:03:55.616,-0.828,76,0.1,0.0,0.2,-0.12,0.01,0.99,1.00000,-0.00003,-0.00010,0.00037,0.064,0.0800
2025,10,12,16:03:55.618,-0.826,78,0.1,0.0,0.0,-0.12,0.01,0.99,1.00000,-0.00003,-0.00010,0.00037,0.063,0.0790
2025,10,12,16:03:55.620,-0.824,80,0.1,0.0,0.2,-0.12,0.01,0.99,1.00000,-0.00003,-0.00010,0.00037,0.064,0.0790
2025,10,12,16:03:55.622,-0.822,82,0.2,0.0,0.0,-0.12,0.01,0.99,1.00000,-0.00003,-0.00010,0.00037,0.063,0.0770
2025,10,12,16:03:55.624,-0.820,84,0.1,0.0,0.0,-0.12,0.01,0.99,1.00000,-0.00003,-0.00010,0.00040,0.063,0.0790
2025,10,12,16:03:55.626,-0.818,86,0.1,0.0,0.0,-0.12,0.01,0.98,1.00000,-0.00003,-0.00010,0.00037,0.063,0.0770
2025,10,12,16:03:55.628,-0.816,88,0.1,0.0,0.0,-0.12,0.01,0.99,1.00000,-0.00003,-0.00010,0.00037,0.063,0.0790
2025,10,12,16:03:55.630,-0.814,90,0.1,0.0,0.0,-0.12,0.02,0.99,1.00000,-0.00003,-0.00010,0.00037,0.063,0.0800
2025,10,12,16:03:55.632,-0.812,92,0.1,0.0,0.0,-0.12,0.01,0.99,1.00000,0.00000,-0.00010,0.00037,0.063,0.0760
2025,10,12,16:03:55.634,-0.810,94,0.1,0.0,0.0,-0.12,0.01,0.99,1.00000,0.00000,-0.00010,0.00037,0.063,0.0770
2025,10,12,16:03:55.636,-0.808,96,0.1,0.0,0.0,-0.12,0.01,0.99,1.00000,0.00000,-0.00010,0.00037,0.063,0.0770
2025,10,12,16:03:55.638,-0.806,98,0.1,0.0,0.0,-0.12,0.01,0.99,0.99997,0.00000,-0.00013,0.00040,0.063,0.0770
2025,10,12,16:03:55.640,-0.804,100,0.1,0.0,0.0,-0.12,0.02,0.99,0.99997,0.00000,-0.00013,0.00037,0.063,0.0790
2025,10,12,16:03:55.642,-0.802,102,0.1,0.0,0.0,-0.12,0.01,0.99,0.99997,0.00000,-0.00013,0.00040,0.063,0.0800
2025,10,12,16:03:55.644,-0.800,104,0.1,0.0,0.0,-0.12,0.02,0.99,0.99997,0.00000,-0.00013,0.00037,0.064,0.0770
2025,10,12,16:03:55.646,-0.798,106,0.1,0.0,0.0,-0.12,0.01,0.99,0.99997,0.00000,-0.00013,0.00037,0.063,0.0790
2025,10,12,16:03:55.648,-0.796,108,0.0,0.0,0.0,-0.12,0.02,0.99,0.99997,0.00000,-0.00013,0.00040,0.064,0.0770
2025,10,12,16:03:55.650,-0.794,110,0.2,0.0,0.0,-0.12,0.02,0.98,0.99997,0.00000,-0.00013,0.00040,0.063,0.0770
2025,10,12,16:03:55.652,-0.792,112,0.0,0.0,0.0,-0.12,0.02,0.99,0.99997,0.00000,-0.00013,0.00040,0.063,0.0820
2025,10,12,16:03:55.654,-0.790,114,0.0,0.0,0.0,-0.12,0.02,0.98,0.99997,0.00000,-0.00013,0.00040,0.064,0.0760
2025,10,12,16:03:55.656,-0.788,116,0.0,0.0,0.0,-0.12,0.02,0.98,0.99997,0.00000,-0.00013,0.00040,0.063,0.0790
2025,10,12,16:03:55.658,-0.786,118,0.1,0.0,0.0,-0.12,0.02,0.99,0.99997,0.00000,-0.00013,0.00040,0.063,0.0800
2025,10,12,16:03:55.660,-0.784,120,0.1,0.0,0.2,-0.12,0.02,0.99,0.99997,0.00000,-0.00013,0.00040,0.064,0.0790
2025,10,12,16:03:55.662,-0.782,122,0.1,0.0,0.2,-0.12,0.02,0.99,0.99997,0.00000,-0.00013,0.00040,0.063,0.0770
2025,10,12,16:03:55.664,-0.780,124,0.0,0.0,0.2,-0.12,0.02,0.99,0.99997,0.00000,-0.00013,0.00040,0.064,0.0770
2025,10,12,16:03:55.666,-0.778,126,0.1,0.0,0.2,-0.12,0.02,0.99,0.99997,0.00000,-0.00013,0.00040,0.064,0.0790
2025,10,12,16:03:55.668,-0.776,128,0.1,0.0,0.2,-0.12,0.02,0.98,0.99997,0.00000,-0.00013,0.00040,0.063,0.0790
2025,10,12,16:03:55.670,-0.774,130,0.0,0.0,0.0,-0.12,0.01,0.99,0.99997,0.00000,-0.00013,0.00040,0.063,0.0790
2025,10,12,16:03:55.672,-0.772,132,0.1,0.0,0.3,-0.12,0.01,0.98,0.99997,0.00000,-0.00013,0.00040,0.063,0.0800
2025,10,12,16:03:55.674,-0.770,134,0.1,0.0,0.3,-0.12,0.01,0.98,0.99997,0.00000,-0.00013,0.00043,0.063,0.0800
2025,10,12,16:03:55.676,-0.768,136,0.1,0.0,0.2,-0.12,0.01,0.99,0.99997,0.00000,-0.00013,0.00043,0.063,0.0800
2025,10,12,16:03:55.678,-0.766,138,0.1,0.0,0.2,-0.12,0.01,0.98,0.99997,0.00000,-0.00013,0.00043,0.064,0.0770
2025,10,12,16:03:55.680,-0.764,140,0.1,0.0,0.2,-0.12,0.01,0.99,0.99997,0.00000,-0.00013,0.00043,0.064,0.0770
2025,10,12,16:03:55.682,-0.762,142,0.0,0.0,0.2,-0.12,0.01,0.99,0.99997,0.00000,-0.00013,0.00043,0.063,0.0800
2025,10,12,16:03:55.684,-0.760,144,0.1,0.0,0.2,-0.12,0.01,0.99,0.99997,0.00000,-0.00013,0.00043,0.063,0.0770
2025,10,12,16:03:55.686,-0.758,146,0.0,0.0,0.2,-0.12,0.01,0.98,0.99997,0.00000,-0.00013,0.00043,0.064,0.0790
2025,10,12,16:03:55.688,-0.756,148,0.1,0.0,0.2,-0.12,0.01,0.99,0.99997,0.00000,-0.00013,0.00043,0.064,0.0760
2025,10,12,16:03:55.690,-0.754,150,0.1,0.0,0.2,-0.12,0.01,0.99,0.99997,0.00000,-0.00013,0.00047,0.063,0.0770
2025,10,12,16:03:55.692,-0.752,152,0.0,0.1,0.2,-0.12,0.01,0.99,0.99997,0.00000,-0.00010,0.00047,0.063,0.0820
2025,10,12,16:03:55.694,-0.750,154,0.1,0.1,0.0,-0.12,0.01,0.99,1.00000,0.00000,0.00000,0.00000,0.063,0.0760
2025,10,12,16:03:55.696,-0.748,156,0.1,0.1,0.0,-0.12,0.01,0.99,1.00000,0.00000,0.00000,0.00000,0.063,0.0790
2025,10,12,16:03:55.698,-0.746,158,0.1,0.1,0.0,-0.12,0.01,0.99,1.00000,0.00000,0.00000,0.00000,0.063,0.0770
2025,10,12,16:03:55.700,-0.744,160,0.1,0.0,0.2,-0.12,0.02,0.98,1.00000,0.00000,0.00000,0.00000,0.064,0.0760
2025,10,12,16:03:55.702,-0.742,162,0.2,0.1,0.0,-0.12,0.01,0.99,1.00000,0.00000,0.00000,0.00000,0.064,0.0820
2025,10,12,16:03:55.704,-0.740,164,0.1,0.1,0.0,-0.12,0.02,0.99,1.00000,0.00000,0.00000,0.00000,0.063,0.0800
2025,10,12,16:03:55.706,-0.738,166,0.1,0.1,0.0,-0.12,0.02,0.99,1.00000,0.00000,0.00000,0.00000,0.063,0.0800
2025,10,12,16:03:55.708,-0.736,168,0.1,0.1,0.0,-0.12,0.02,0.99,1.00000,0.00000,0.00000,0.00000,0.063,0.0800
2025,10,12,16:03:55.710,-0.734,170,0.1,0.1,0.0,-0.12,0.02,0.99,1.00000,0.00000,0.00000,0.00000,0.063,0.0770
2025,10,12,16:03:55.712,-0.732,172,0.1,0.0,0.0,-0.12,0.02,0.99,1.00000,0.00000,0.00000,0.00000,0.063,0.0790
2025,10,12,16:03:55.714,-0.730,174,0.1,0.1,0.2,-0.12,0.02,0.99,1.00000,0.00000,0.00000,0.00000,0.064,0.0790
2025,10,12,16:03:55.716,-0.728,176,0.1,0.1,0.2,-0.12,0.02,0.99,1.00000,0.00000,0.00000,0.00000,0.064,0.0760
2025,10,12,16:03:55.718,-0.726,178,0.0,0.1,0.2,-0.12,0.02,0.99,1.00000,0.00000,0.00003,0.00000,0.063,0.0790
2025,10,12,16:03:55.720,-0.724,180,0.1,0.3,0.2,-0.12,0.02,0.99,1.00000,0.00000,0.00003,0.00000,0.063,0.0770
2025,10,12,16:03:55.722,-0.722,182,0.1,0.1,0.3,-0.12,0.02,0.99,1.00000,0.00003,0.00003,0.00003,0.063,0.0770
2025,10,12,16:03:55.724,-0.720,184,0.0,0.3,0.3,-0.12,0.02,0.99,1.00000,0.00003,0.00003,0.00003,0.063,0.0770
2025,10,12,16:03:55.726,-0.718,186,0.1,0.0,0.3,-0.12,0.02,0.99,1.00000,0.00003,0.00003,0.00003,0.064,0.0760
2025,10,12,16:03:55.728,-0.716,188,0.0,0.3,0.2,-0.12,0.02,0.99,1.00000,0.00003,0.00003,0.00003,0.063,0.0790
2025,10,12,16:03:55.730,-0.714,190,0.0,0.1,0.3,-0.12,0.02,0.99,1.00000,0.00003,0.00003,0.00003,0.063,0.0790
2025,10,12,16:03:55.732,-0.712,192,0.1,0.1,0.3,-0.13,0.02,0.99,1.00000,0.00003,0.00003,0.00003,0.063,0.0790
2025,10,12,16:03:55.734,-0.710,194,0.0,0.1,0.3,-0.13,0.02,0.99,1.00000,0.00003,0.00003,0.00007,0.064,0.0800
2025,10,12,16:03:55.736,-0.708,196,0.0,0.3,0.4,-0.13,0.02,0.99,1.00000,0.00003,0.00007,0.00007,0.064,0.0790
2025,10,12,16:03:55.738,-0.706,198,0.1,0.3,0.4,-0.13,0.03,0.99,1.00000,0.00003,0.00007,0.00007,0.063,0.0820
2025,10,12,16:03:55.740,-0.704,200,0.0,0.1,0.4,-0.13,0.02,0.99,1.00000,0.00003,0.00007,0.00007,0.064,0.0790
2025,10,12,16:03:55.742,-0.702,202,0.0,0.3,0.4,-0.13,0.02,0.99,1.00000,0.00003,0.00007,0.00010,0.063,0.0790
2025,10,12,16:03:55.744,-0.700,204,0.0,0.3,0.6,-0.13,0.03,0.99,1.00000,0.00003,0.00007,0.00010,0.064,0.0820
2025,10,12,16:03:55.746,-0.698,206,-0.1,0.1,0.4,-0.13,0.02,0.99,1.00000,0.00003,0.00007,0.00010,0.064,0.0800
2025,10,12,16:03:55.748,-0.696,208,-0.1,0.1,0.4,-0.13,0.02,0.99,1.00000,0.00003,0.00007,0.00013,0.064,0.0800
2025,10,12,16:03:55.750,-0.694,210,0.0,0.3,0.4,-0.14,0.02,0.98,1.00000,0.00003,0.00010,0.00013,0.063,0.0820
2025,10,12,16:03:55.752,-0.692,212,0.0,0.1,0.4,-0.14,0.02,0.98,1.00000,0.00003,0.00010,0.00013,0.063,0.0790
2025,10,12,16:03:55.754,-0.690,214,0.0,0.1,0.6,-0.14,0.02,0.98,1.00000,0.00003,0.00010,0.00013,0.063,0.0800
2025,10,12,16:03:55.756,-0.688,216,0.0,0.1,0.3,-0.14,0.02,0.98,1.00000,0.00003,0.00010,0.00017,0.063,0.0760
2025,10,12,16:03:55.758,-0.686,218,0.0,0.1,0.3,-0.14,0.02,0.98,1.00000,0.00000,0.00010,0.00017,0.063,0.0770
2025,10,12,16:03:55.760,-0.684,220,0.0,0.1,0.2,-0.14,0.03,0.98,1.00000,0.00000,0.00010,0.00017,0.064,0.0770
2025,10,12,16:03:55.762,-0.682,222,-0.1,0.3,0.2,-0.14,0.02,0.98,1.00000,0.00000,0.00010,0.00017,0.063,0.0800
2025,10,12,16:03:55.764,-0.680,224,0.0,0.1,0.2,-0.14,0.02,0.98,1.00000,0.00000,0.00010,0.00017,0.063,0.0790
2025,10,12,16:03:55.766,-0.678,226,-0.1,0.1,0.0,-0.14,0.02,0.98,1.00000,0.00000,0.00010,0.00017,0.064,0.0800
2025,10,12,16:03:55.768,-0.676,228,0.0,0.0,0.0,-0.14,0.02,0.98,1.00000,0.00000,0.00010,0.00017,0.063,0.0790
2025,10,12,16:03:55.770,-0.674,230,-0.1,0.0,0.0,-0.14,0.02,0.98,1.00000,0.00000,0.00010,0.00017,0.063,0.0800
2025,10,12,16:03:55.772,-0.672,232,-0.1,0.0,0.0,-0.14,0.02,0.98,1.00000,0.00000,0.00010,0.00017,0.063,0.0790
2025,10,12,16:03:55.774,-0.670,234,0.0,0.1,-0.2,-0.14,0.02,0.98,1.00000,0.00000,0.00013,0.00017,0.063,0.0790
2025,10,12,16:03:55.776,-0.668,236,0.0,0.1,-0.3,-0.14,0.02,0.98,1.00000,0.00000,0.00013,0.00017,0.064,0.0790
2025,10,12,16:03:55.778,-0.666,238,0.0,0.0,-0.4,-0.14,0.02,0.98,1.00000,0.00000,0.00013,0.00017,0.064,0.0790
2025,10,12,16:03:55.780,-0.664,240,0.0,0.1,-0.6,-0.14,0.02,0.98,1.00000,0.00000,0.00013,0.00013,0.063,0.0760
2025,10,12,16:03:55.782,-0.662,242,0.0,0.1,-0.7,-0.14,0.02,0.98,1.00000,0.00000,0.00013,0.00013,0.063,0.0800
2025,10,12,16:03:55.784,-0.660,244,0.0,0.0,-0.7,-0.14,0.02,0.98,1.00000,0.00000,0.00013,0.00010,0.063,0.0770
2025,10,12,16:03:55.786,-0.658,246,0.0,0.0,-0.9,-0.14,0.02,0.98,1.00000,0.00000,0.00013,0.00010,0.063,0.0800
2025,10,12,16:03:55.788,-0.656,248,0.0,0.0,-0.9,-0.14,0.02,0.98,1.00000,0.00000,0.00013,0.00007,0.063,0.0790
2025,10,12,16:03:55.790,-0.654,0,0.0,0.1,-1.0,-0.14,0.02,0.98,1.00000,0.00000,0.00013,0.00007,0.063,0.0820
2025,10,12,16:03:55.792,-0.652,2,0.1,0.0,-1.1,-0.14,0.02,0.99,1.00000,0.00000,0.00013,0.00003,0.063,0.0800
2025,10,12,16:03:55.794,-0.650,4,0.0,0.0,-1.1,-0.14,0.02,0.98,1.00000,0.00000,0.00013,0.00003,0.063,0.0790
2025,10,12,16:03:55.796,-0.648,6,0.0,0.0,-1.1,-0.13,0.02,0.99,1.00000,0.00000,0.00013,0.00000,0.063,0.0770
2025,10,12,16:03:55.798,-0.646,8,0.1,0.0,-1.3,-0.14,0.02,0.98,1.00000,0.00000,0.00013,0.00000,0.064,0.0800
2025,10,12,16:03:55.800,-0.644,10,0.0,0.0,-1.3,-0.14,0.02,0.98,1.00000,0.00000,0.00013,0.00000,0.063,0.0760
2025,10,12,16:03:55.802,-0.642,12,0.0,0.0,-1.3,-0.13,0.02,0.98,1.00000,0.00000,0.00013,-0.00003,0.063,0.0790
2025,10,12,16:03:55.804,-0.640,14,0.0,0.0,-1.4,-0.14,0.02,0.98,1.00000,0.00000,0.00013,-0.00007,0.063,0.0800
2025,10,12,16:03:55.806,-0.638,16,0.0,0.0,-1.3,-0.13,0.02,0.99,1.00000,0.00000,0.00013,-0.00007,0.063,0.0820
2025,10,12,16:03:55.808,-0.636,18,0.0,0.0,-1.4,-0.13,0.02,0.98,1.00000,0.00000,0.00013,-0.00010,0.063,0.0760
2025,10,12,16:03:55.810,-0.634,20,-0.1,0.0,-1.4,-0.14,0.02,0.99,1.00000,0.00000,0.00013,-0.00013,0.063,0.0800
2025,10,12,16:03:55.812,-0.632,22,-0.1,0.0,-1.4,-0.13,0.02,0.99,1.00000,0.00000,0.00013,-0.00017,0.064,0.0790
2025,10,12,16:03:55.814,-0.630,24,0.0,0.0,-1.4,-0.13,0.02,0.98,1.00000,0.00000,0.00013,-0.00020,0.063,0.0790
2025,10,12,16:03:55.816,-0.628,26,-0.1,0.0,-1.4,-0.13,0.02,0.99,1.00000,0.00000,0.00013,-0.00020,0.064,0.0800
2025,10,12,16:03:55.818,-0.626,28,-0.1,0.0,-1.4,-0.13,0.02,0.99,1.00000,0.00000,0.00013,-0.00023,0.063,0.0790
2025,10,12,16:03:55.820,-0.624,30,-0.1,0.0,-1.3,-0.13,0.02,0.99,1.00000,0.00000,0.00013,-0.00027,0.063,0.0770
2025,10,12,16:03:55.822,-0.622,32,0.0,0.0,-1.3,-0.13,0.02,0.99,1.00000,0.00000,0.00013,-0.00027,0.063,0.0800
2025,10,12,16:03:55.824,-0.620,34,0.0,0.0,-1.1,-0.13,0.02,0.99,1.00000,0.00000,0.00013,-0.00030,0.063,0.0800
2025,10,12,16:03:55.826,-0.618,36,-0.1,0.0,-1.0,-0.13,0.02,0.99,1.00000,0.00000,0.00013,-0.00033,0.063,0.0820
2025,10,12,16:03:55.828,-0.616,38,-0.1,0.0,-0.9,-0.13,0.02,0.98,1.00000,0.00000,0.00013,-0.00033,0.063,0.0770
2025,10,12,16:03:55.830,-0.614,40,-0.1,0.0,-1.0,-0.13,0.02,0.99,1.00000,0.00000,0.00013,-0.00037,0.064,0.0820
2025,10,12,16:03:55.832,-0.612,42,-0.1,0.0,-0.9,-0.13,0.02,0.99,1.00000,0.00000,0.00013,-0.00037,0.063,0.0790
2025,10,12,16:03:55.834,-0.610,44,-0.1,0.0,-0.9,-0.14,0.02,0.99,0.99997,0.00000,0.00013,-0.00040,0.063,0.0790
2025,10,12,16:03:55.836,-0.608,46,-0.1,0.0,-0.7,-0.13,0.02,0.99,0.99997,0.00000,0.00013,-0.00040,0.063,0.0820
2025,10,12,16:03:55.838,-0.606,48,-0.1,0.0,-0.6,-0.13,0.02,0.99,0.99997,0.00000,0.00013,-0.00040,0.063,0.0790
2025,10,12,16:03:55.840,-0.604,50,-0.1,0.0,-0.6,-0.14,0.02,0.98,0.99997,0.00000,0.00013,-0.00043,0.064,0.0840
2025,10,12,16:03:55.842,-0.602,52,-0.2,0.0,-0.4,-0.13,0.02,0.98,0.99997,0.00000,0.00013,-0.00043,0.063,0.0790
2025,10,12,16:03:55.844,-0.600,54,-0.1,0.0,-0.3,-0.14,0.02,0.98,0.99997,0.00000,0.00013,-0.00043,0.063,0.0740
2025,10,12,16:03:55.846,-0.598,56,-0.1,0.0,-0.4,-0.14,0.02,0.99,0.99997,0.00000,0.00013,-0.00043,0.063,0.0770
2025,10,12,16:03:55.848,-0.596,58,-0.2,0.0,-0.3,-0.14,0.02,0.98,0.99997,0.00000,0.00013,-0.00043,0.063,0.0790
2025,10,12,16:03:55.850,-0.594,60,-0.1,0.0,-0.3,-0.14,0.01,0.99,0.99997,0.00000,0.00013,-0.00047,0.063,0.0800
2025,10,12,16:03:55.852,-0.592,62,-0.1,0.0,-0.3,-0.14,0.02,0.98,0.99997,0.00000,0.00013,-0.00047,0.063,0.0790
2025,10,12,16:03:55.854,-0.590,64,-0.1,0.0,-0.2,-0.14,0.01,0.99,0.99997,-0.00003,0.00013,-0.00047,0.064,0.0790
2025,10,12,16:03:55.856,-0.588,66,0.0,0.0,-0.3,-0.14,0.01,0.99,0.99997,-0.00003,0.00013,-0.00047,0.063,0.0820
2025,10,12,16:03:55.858,-0.586,68,-0.2,0.0,-0.2,-0.14,0.01,0.98,0.99997,-0.00003,0.00013,-0.00047,0.064,0.0790
2025,10,12,16:03:55.860,-0.584,70,-0.1,0.0,-0.2,-0.14,0.01,0.99,0.99997,-0.00003,0.00013,-0.00047,0.064,0.0800
2025,10,12,16:03:55.862,-0.582,72,-0.1,0.0,-0.2,-0.14,0.01,0.98,0.99997,-0.00003,0.00013,-0.00047,0.064,0.0790
2025,10,12,16:03:55.864,-0.580,74,-0.1,0.0,-0.2,-0.14,0.01,0.98,0.99997,-0.00003,0.00013,-0.00050,0.063,0.0800
2025,10,12,16:03:55.866,-0.578,76,-0.1,0.0,-0.2,-0.14,0.01,0.98,0.99997,-0.00003,0.00013,-0.00050,0.063,0.0790
2025,10,12,16:03:55.868,-0.576,78,-0.1,0.0,-0.2,-0.14,0.01,0.98,0.99997,-0.00003,0.00013,-0.00050,0.063,0.0790
2025,10,12,16:03:55.870,-0.574,80,-0.1,0.0,0.0,-0.14,0.01,0.99,0.99997,-0.00003,0.00013,-0.00050,0.063,0.0790
2025,10,12,16:03:55.872,-0.572,82,-0.1,0.0,-0.2,-0.14,0.01,0.98,0.99997,-0.00003,0.00013,-0.00050,0.064,0.0800
2025,10,12,16:03:55.874,-0.570,84,-0.1,0.0,0.0,-0.14,0.01,0.98,0.99997,-0.00003,0.00013,-0.00050,0.064,0.0770
2025,10,12,16:03:55.876,-0.568,86,-0.1,0.0,-0.2,-0.14,0.01,0.98,0.99997,-0.00003,0.00013,-0.00050,0.063,0.0790
2025,10,12,16:03:55.878,-0.566,88,-0.1,-0.2,0.0,-0.14,0.01,0.98,0.99997,-0.00003,0.00013,-0.00050,0.064,0.0760
2025,10,12,16:03:55.880,-0.564,90,-0.2,-0.2,-0.2,-0.13,0.01,0.98,0.99997,-0.00007,0.00010,-0.00050,0.063,0.0790
2025,10,12,16:03:55.882,-0.562,92,-0.2,-0.2,-0.2,-0.13,0.01,0.98,0.99997,-0.00007,0.00010,-0.00050,0.063,0.0820
2025,10,12,16:03:55.884,-0.560,94,-0.2,-0.2,-0.2,-0.13,0.01,0.98,0.99997,-0.00007,0.00010,-0.00050,0.064,0.0800
2025,10,12,16:03:55.886,-0.558,96,-0.2,0.0,0.0,-0.13,0.01,0.98,0.99997,-0.00007,0.00010,-0.00050,0.063,0.0740
2025,10,12,16:03:55.888,-0.556,98,-0.2,0.0,0.0,-0.13,0.01,0.99,0.99997,-0.00007,0.00010,-0.00050,0.063,0.0790
2025,10,12,16:03:55.890,-0.554,100,-0.2,0.0,0.0,-0.13,0.01,0.98,0.99997,-0.00007,0.00010,-0.00050,0.063,0.0800
2025,10,12,16:03:55.892,-0.552,102,-0.1,-0.2,0.0,-0.13,0.01,0.98,0.99997,-0.00007,0.00010,-0.00053,0.063,0.0790
2025,10,12,16:03:55.894,-0.550,104,-0.1,0.0,0.0,-0.13,0.01,0.98,0.99997,-0.00010,0.00010,-0.00053,0.063,0.0760
2025,10,12,16:03:55.896,-0.548,106,0.0,0.0,0.0,-0.13,0.01,0.99,0.99997,-0.00010,0.00010,-0.00053,0.063,0.0800
2025,10,12,16:03:55.898,-0.546,108,-0.1,-0.2,0.0,-0.13,0.01,0.98,0.99997,-0.00010,0.00010,-0.00053,0.064,0.0800
2025,10,12,16:03:55.900,-0.544,110,-0.1,-0.2,0.0,-0.13,0.01,0.98,0.99997,-0.00010,0.00010,-0.00053,0.063,0.0790
2025,10,12,16:03:55.902,-0.542,112,-0.1,0.0,0.0,-0.13,0.01,0.98,0.99997,-0.00010,0.00007,-0.00053,0.063,0.0790
2025,10,12,16:03:55.904,-0.540,114,-0.1,-0.2,0.0,-0.13,0.01,0.98,0.99997,-0.00010,0.00007,-0.00053,0.063,0.0770
2025,10,12,16:03:55.906,-0.538,116,-0.1,0.0,0.0,-0.13,0.01,0.99,0.99997,-0.00010,0.00007,-0.00053,0.064,0.0790
2025,10,12,16:03:55.908,-0.536,118,-0.2,-0.2,0.2,-0.12,0.01,0.98,0.99997,-0.00010,0.00007,-0.00050,0.064,0.0770
2025,10,12,16:03:55.910,-0.534,120,-0.1,-0.2,0.2,-0.13,0.01,0.99,0.99997,-0.00010,0.00007,-0.00050,0.063,0.0800
2025,10,12,16:03:55.912,-0.532,122,-0.1,-0.2,0.2,-0.13,0.01,0.98,0.99997,-0.00010,0.00007,-0.00050,0.063,0.0790
2025,10,12,16:03:55.914,-0.530,124,-0.1,-0.2,0.2,-0.12,0.01,0.98,0.99997,-0.00010,0.00007,-0.00050,0.063,0.0820
2025,10,12,16:03:55.916,-0.528,126,-0.1,0.0,0.2,-0.13,0.01,0.99,0.99997,-0.00010,0.00007,-0.00050,0.064,0.0820
2025,10,12,16:03:55.918,-0.526,128,-0.1,0.0,0.3,-0.12,0.01,0.98,0.99997,-0.00010,0.00007,-0.00050,0.063,0.0800
2025,10,12,16:03:55.920,-0.524,130,-0.1,0.0,0.3,-0.13,0.01,0.99,0.99997,-0.00013,0.00007,-0.00050,0.063,0.0800
2025,10,12,16:03:55.922,-0.522,132,-0.1,0.0,0.2,-0.12,0.01,0.99,0.99997,-0.00013,0.00007,-0.00050,0.063,0.0800
2025,10,12,16:03:55.924,-0.520,134,-0.2,-0.2,0.4,-0.13,0.01,0.99,0.99997,-0.00013,0.00003,-0.00047,0.063,0.0820
2025,10,12,16:03:55.926,-0.518,136,-0.1,-0.2,0.3,-0.13,0.01,0.99,0.99997,-0.00013,0.00003,-0.00047,0.064,0.0770
2025,10,12,16:03:55.928,-0.516,138,-0.2,0.0,0.3,-0.12,0.01,0.99,0.99997,-0.00013,0.00003,-0.00047,0.064,0.0790
2025,10,12,16:03:55.930,-0.514,140,-0.1,0.0,0.3,-0.12,0.01,0.99,0.99997,-0.00013,0.00003,-0.00047,0.063,0.0800
2025,10,12,16:03:55.932,-0.512,142,-0.1,0.0,0.3,-0.12,0.01,0.99,0.99997,-0.00013,0.00003,-0.00047,0.064,0.0800
2025,10,12,16:03:55.934,-0.510,144,-0.2,-0.2,0.4,-0.13,0.01,0.99,0.99997,-0.00013,0.00003,-0.00043,0.064,0.0790
2025,10,12,16:03:55.936,-0.508,146,-0.1,-0.2,0.3,-0.12,0.01,0.99,0.99997,-0.00013,0.00003,-0.00043,0.063,0.0770
2025,10,12,16:03:55.938,-0.506,148,-0.1,-0.2,0.2,-0.12,0.01,0.99,0.99997,-0.00017,0.00003,-0.00043,0.064,0.0740
2025,10,12,16:03:55.940,-0.504,150,0.0,-0.2,0.2,-0.13,0.01,0.99,0.99997,-0.00017,0.00003,-0.00043,0.063,0.0790
2025,10,12,16:03:55.942,-0.502,152,-0.1,0.0,0.0,-0.12,0.00,0.99,0.99997,-0.00017,0.00003,-0.00043,0.063,0.0800
2025,10,12,16:03:55.944,-0.500,154,-0.1,0.0,0.0,-0.13,0.01,0.99,0.99997,-0.00017,0.00003,-0.00043,0.064,0.0800
2025,10,12,16:03:55.946,-0.498,156,-0.1,0.0,0.0,-0.12,0.00,0.99,0.99997,-0.00017,0.00003,-0.00043,0.064,0.0770
2025,10,12,16:03:55.948,-0.496,158,-0.1,-0.2,0.0,-0.13,0.00,0.99,0.99997,-0.00017,0.00003,-0.00043,0.063,0.0800
2025,10,12,16:03:55.950,-0.494,160,-0.1,-0.2,0.0,-0.13,0.00,0.99,0.99997,-0.00017,0.00000,-0.00043,0.064,0.0770
2025,10,12,16:03:55.952,-0.492,162,-0.1,0.0,-0.2,-0.12,0.00,0.99,0.99997,-0.00017,0.00000,-0.00043,0.064,0.0790
2025,10,12,16:03:55.954,-0.490,164,0.0,0.0,-0.2,-0.12,0.01,0.98,0.99997,-0.00017,0.00000,-0.00043,0.063,0.0770
2025,10,12,16:03:55.956,-0.488,166,0.0,0.0,-0.3,-0.12,0.00,0.99,0.99997,-0.00017,0.00000,-0.00043,0.063,0.0820
2025,10,12,16:03:55.958,-0.486,168,0.0,-0.2,-0.2,-0.12,0.00,0.99,0.99997,-0.00017,0.00000,-0.00043,0.063,0.0800
2025,10,12,16:03:55.960,-0.484,170,0.0,-0.2,-0.3,-0.12,0.01,0.98,0.99997,-0.00017,0.00000,-0.00043,0.063,0.0770
2025,10,12,16:03:55.962,-0.482,172,0.0,0.0,-0.3,-0.12,0.00,0.99,0.99997,-0.00017,0.00000,-0.00047,0.064,0.0770
2025,10,12,16:03:55.964,-0.480,174,0.0,0.0,-0.4,-0.12,0.00,0.98,0.99997,-0.00017,0.00000,-0.00047,0.063,0.0790
2025,10,12,16:03:55.966,-0.478,176,0.0,-0.2,-0.6,-0.13,0.00,0.99,0.99997,-0.00017,0.00000,-0.00047,0.063,0.0790
2025,10,12,16:03:55.968,-0.476,178,0.0,-0.2,-0.6,-0.12,0.01,0.98,0.99997,-0.00017,0.00000,-0.00050,0.063,0.0790
2025,10,12,16:03:55.970,-0.474,180,0.0,0.0,-0.7,-0.13,0.00,0.99,0.99997,-0.00017,0.00000,-0.00050,0.063,0.0800
2025,10,12,16:03:55.972,-0.472,182,0.0,0.0,-0.6,-0.12,0.01,0.98,0.99997,-0.00017,0.00000,-0.00050,0.064,0.0800
2025,10,12,16:03:55.974,-0.470,184,0.1,0.0,-0.7,-0.13,0.00,0.98,0.99997,-0.00017,0.00000,-0.00053,0.064,0.0770
2025,10,12,16:03:55.976,-0.468,186,0.1,0.0,-0.7,-0.12,0.01,0.99,0.99997,-0.00017,0.00000,-0.00053,0.064,0.0790
2025,10,12,16:03:55.978,-0.466,188,0.0,0.0,-0.9,-0.12,0.01,0.98,0.99997,-0.00017,0.00000,-0.00057,0.063,0.0770
2025,10,12,16:03:55.980,-0.464,190,0.1,0.0,-0.7,-0.12,0.01,0.98,0.99997,-0.00017,0.00000,-0.00057,0.063,0.0790
2025,10,12,16:03:55.982,-0.462,192,0.0,0.0,-0.9,-0.12,0.00,0.98,0.99997,-0.00017,0.00000,-0.00057,0.063,0.0820
2025,10,12,16:03:55.984,-0.460,194,0.1,0.0,-0.9,-0.12,0.00,0.98,0.99997,-0.00017,0.00000,-0.00060,0.063,0.0790
2025,10,12,16:03:55.986,-0.458,196,0.0,0.0,-0.9,-0.12,0.01,0.99,0.99997,-0.00017,0.00000,-0.00060,0.063,0.0820
2025,10,12,16:03:55.988,-0.456,198,0.2,-0.2,-0.7,-0.12,0.00,0.98,0.99997,-0.00017,0.00000,-0.00063,0.063,0.0770
2025,10,12,16:03:55.990,-0.454,200,0.1,0.0,-0.6,-0.12,0.01,0.99,0.99997,-0.00017,0.00000,-0.00063,0.063,0.0790
2025,10,12,16:03:55.992,-0.452,202,0.1,0.0,-0.6,-0.12,0.00,0.98,0.99997,-0.00017,0.00000,-0.00063,0.063,0.0800
2025,10,12,16:03:55.994,-0.450,204,0.0,0.0,-0.6,-0.12,0.01,0.98,0.99997,-0.00017,0.00000,-0.00067,0.063,0.0790
2025,10,12,16:03:55.996,-0.448,206,0.0,0.0,-0.6,-0.12,0.00,0.99,0.99997,-0.00017,0.00000,-0.00067,0.063,0.0760
2025,10,12,16:03:55.998,-0.446,208,0.0,0.0,-0.4,-0.12,0.01,0.98,0.99997,-0.00017,0.00000,-0.00067,0.063,0.0720
2025,10,12,16:03:56.000,-0.444,210,0.0,0.0,-0.4,-0.12,0.00,0.99,0.99997,-0.00017,0.00000,-0.00070,0.063,0.0760
2025,10,12,16:03:56.002,-0.442,212,0.1,0.0,-0.3,-0.11,0.01,0.98,0.99997,-0.00013,0.00000,-0.00070,0.064,0.0820
2025,10,12,16:03:56.004,-0.440,214,0.1,0.0,-0.3,-0.12,0.00,0.99,0.99997,-0.00013,0.00000,-0.00070,0.064,0.0800
2025,10,12,16:03:56.006,-0.438,216,0.1,0.0,-0.2,-0.12,0.01,0.98,0.99997,-0.00013,0.00000,-0.00070,0.063,0.0800
2025,10,12,16:03:56.008,-0.436,218,0.1,0.0,0.0,-0.12,0.00,0.98,0.99997,-0.00013,0.00000,-0.00070,0.063,0.0790
2025,10,12,16:03:56.010,-0.434,220,0.1,0.0,0.0,-0.11,0.01,0.99,0.99997,-0.00013,0.00000,-0.00070,0.063,0.0790
2025,10,12,16:03:56.012,-0.432,222,0.0,0.0,0.0,-0.12,0.01,0.98,0.99997,-0.00013,0.00000,-0.00070,0.063,0.0820
2025,10,12,16:03:56.014,-0.430,224,0.0,0.0,0.0,-0.11,0.00,0.99,0.99997,-0.00013,0.00000,-0.00070,0.064,0.0770
2025,10,12,16:03:56.016,-0.428,226,0.1,0.0,0.2,-0.11,0.01,0.99,0.99997,-0.00013,0.00000,-0.00070,0.063,0.0760
2025,10,12,16:03:56.018,-0.426,228,0.1,0.0,0.3,-0.12,0.00,0.98,0.99997,-0.00013,0.00000,-0.00070,0.064,0.0820
2025,10,12,16:03:56.020,-0.424,230,0.1,0.0,0.2,-0.11,0.00,0.99,0.99997,-0.00013,0.00000,-0.00070,0.063,0.0770
2025,10,12,16:03:56.022,-0.422,232,0.1,0.1,0.3,-0.12,0.00,0.99,0.99997,-0.00013,0.00000,-0.00067,0.064,0.0800
2025,10,12,16:03:56.024,-0.420,234,0.1,0.0,0.4,-0.11,0.00,0.99,0.99997,-0.00013,0.00000,-0.00067,0.064,0.0770
2025,10,12,16:03:56.026,-0.418,236,0.0,0.0,0.4,-0.12,0.00,0.99,0.99997,-0.00013,0.00000,-0.00067,0.063,0.0770
2025,10,12,16:03:56.028,-0.416,238,0.0,0.1,0.6,-0.12,0.00,0.98,0.99997,-0.00013,0.00000,-0.00067,0.064,0.0740
2025,10,12,16:03:56.030,-0.414,240,0.1,0.1,0.4,-0.11,0.01,0.99,0.99997,-0.00013,0.00000,-0.00063,0.063,0.0800
2025,10,12,16:03:56.032,-0.412,242,0.1,0.1,0.6,-0.12,0.00,0.98,0.99997,-0.00013,0.00000,-0.00063,0.064,0.0820
2025,10,12,16:03:56.034,-0.410,244,0.1,0.1,0.7,-0.12,0.00,0.98,0.99997,-0.00013,0.00000,-0.00063,0.063,0.0790
2025,10,12,16:03:56.036,-0.408,246,0.1,0.1,0.6,-0.12,0.01,1.00,0.99997,-0.00013,0.00000,-0.00060,0.063,0.0740
2025,10,12,16:03:56.038,-0.406,248,0.1,0.1,0.6,-0.12,0.01,0.99,0.99997,-0.00013,0.00000,-0.00060,0.063,0.0770
2025,10,12,16:03:56.040,-0.404,0,0.0,0.1,0.6,-0.12,0.00,0.99,0.99997,-0.00013,0.00000,-0.00060,0.063,0.0770
2025,10,12,16:03:56.042,-0.402,2,0.1,0.1,0.7,-0.12,0.00,0.99,0.99997,-0.00010,0.00000,-0.00057,0.063,0.0800
2025,10,12,16:03:56.044,-0.400,4,0.1,0.1,0.7,-0.12,0.00,0.98,0.99997,-0.00010,0.00003,-0.00057,0.064,0.0770
2025,10,12,16:03:56.046,-0.398,6,0.1,0.3,0.7,-0.12,0.00,0.99,0.99997,-0.00010,0.00003,-0.00053,0.063,0.0790
2025,10,12,16:03:56.048,-0.396,8,0.1,0.1,0.7,-0.12,0.01,0.99,0.99997,-0.00010,0.00003,-0.00053,0.063,0.0790
2025,10,12,16:03:56.050,-0.394,10,0.1,0.1,0.7,-0.12,0.01,0.99,0.99997,-0.00010,0.00003,-0.00050,0.063,0.0770
2025,10,12,16:03:56.052,-0.392,12,0.2,0.1,0.7,-0.12,0.01,0.98,0.99997,-0.00010,0.00003,-0.00050,0.063,0.0760
2025,10,12,16:03:56.054,-0.390,14,0.1,0.1,0.7,-0.13,0.01,0.99,0.99997,-0.00010,0.00003,-0.00050,0.063,0.0790
2025,10,12,16:03:56.056,-0.388,16,0.2,0.1,0.7,-0.12,0.01,0.99,0.99997,-0.00010,0.00003,-0.00047,0.063,0.0770
2025,10,12,16:03:56.058,-0.386,18,0.1,0.1,0.7,-0.12,0.01,0.99,0.99997,-0.00010,0.00003,-0.00047,0.064,0.0790
2025,10,12,16:03:56.060,-0.384,20,0.1,0.0,0.7,-0.13,0.01,0.99,0.99997,-0.00010,0.00003,-0.00043,0.063,0.0800
2025,10,12,16:03:56.062,-0.382,22,0.1,0.1,0.7,-0.12,0.01,0.98,0.99997,-0.00010,0.00003,-0.00043,0.063,0.0800
2025,10,12,16:03:56.064,-0.380,24,0.2,0.1,0.6,-0.13,0.01,0.99,0.99997,-0.00010,0.00003,-0.00043,0.064,0.0760
2025,10,12,16:03:56.066,-0.378,26,0.1,0.3,0.7,-0.12,0.01,0.98,0.99997,-0.00007,0.00007,-0.00040,0.063,0.0770
2025,10,12,16:03:56.068,-0.376,28,0.2,0.1,0.7,-0.13,0.01,0.99,0.99997,-0.00007,0.00007,-0.00040,0.063,0.0770
2025,10,12,16:03:56.070,-0.374,30,0.2,0.1,0.7,-0.12,0.01,0.99,0.99997,-0.00007,0.00007,-0.00037,0.063,0.0800
2025,10,12,16:03:56.072,-0.372,32,0.1,0.1,0.7,-0.13,0.01,0.98,0.99997,-0.00007,0.00007,-0.00037,0.064,0.0790
2025,10,12,16:03:56.074,-0.370,34,0.2,0.1,0.7,-0.13,0.02,0.99,0.99997,-0.00007,0.00007,-0.00037,0.064,0.0790
2025,10,12,16:03:56.076,-0.368,36,0.1,0.1,0.7,-0.13,0.01,0.99,0.99997,-0.00007,0.00007,-0.00033,0.063,0.0800
2025,10,12,16:03:56.078,-0.366,38,0.1,0.1,0.6,-0.13,0.02,0.97,0.99997,-0.00007,0.00007,-0.00033,0.064,0.0740
2025,10,12,16:03:56.080,-0.364,40,0.1,0.1,0.6,-0.13,0.01,0.99,0.99997,-0.00007,0.00007,-0.00033,0.063,0.0790
2025,10,12,16:03:56.082,-0.362,42,0.1,0.1,0.6,-0.13,0.02,0.97,0.99997,-0.00007,0.00007,-0.00030,0.063,0.0770
2025,10,12,16:03:56.084,-0.360,44,0.1,0.1,0.6,-0.14,0.02,0.98,0.99997,-0.00007,0.00007,-0.00030,0.063,0.0790
2025,10,12,16:03:56.086,-0.358,46,0.1,0.1,0.7,-0.13,0.02,1.00,0.99997,-0.00007,0.00010,-0.00030,0.063,0.0790
2025,10,12,16:03:56.088,-0.356,48,0.1,0.1,0.7,-0.14,0.02,0.97,0.99997,-0.00003,0.00010,-0.00027,0.063,0.0770
2025,10,12,16:03:56.090,-0.354,50,0.1,0.1,0.7,-0.14,0.02,0.99,0.99997,-0.00003,0.00010,-0.00027,0.064,0.0770
2025,10,12,16:03:56.092,-0.352,52,0.1,0.1,0.7,-0.13,0.02,0.98,1.00000,-0.00003,0.00010,-0.00023,0.063,0.0770
2025,10,12,16:03:56.094,-0.350,54,0.1,0.0,0.6,-0.14,0.02,0.98,1.00000,-0.00003,0.00010,-0.00023,0.063,0.0790
2025,10,12,16:03:56.096,-0.348,56,0.2,0.1,0.7,-0.13,0.02,0.98,1.00000,-0.00003,0.00010,-0.00023,0.063,0.0770
2025,10,12,16:03:56.098,-0.346,58,0.1,0.1,0.6,-0.14,0.02,0.98,1.00000,-0.00003,0.00010,-0.00020,0.063,0.0760
2025,10,12,16:03:56.100,-0.344,60,0.1,0.1,0.6,-0.14,0.02,0.99,1.00000,-0.00003,0.00010,-0.00020,0.063,0.0790
2025,10,12,16:03:56.102,-0.342,62,0.1,0.1,0.7,-0.13,0.02,0.98,1.00000,-0.00003,0.00010,-0.00017,0.063,0.0790
2025,10,12,16:03:56.104,-0.340,64,0.1,0.1,0.6,-0.14,0.02,0.98,1.00000,-0.00003,0.00010,-0.00017,0.064,0.0790
2025,10,12,16:03:56.106,-0.338,66,0.1,0.1,0.6,-0.14,0.02,0.98,1.00000,-0.00003,0.00010,-0.00017,0.063,0.0790
2025,10,12,16:03:56.108,-0.336,68,0.1,0.1,0.6,-0.13,0.02,0.98,1.00000,-0.00003,0.00013,-0.00013,0.063,0.0770
2025,10,12,16:03:56.110,-0.334,70,0.1,0.1,0.7,-0.14,0.02,0.98,1.00000,-0.00003,0.00013,-0.00013,0.064,0.0800
2025,10,12,16:03:56.112,-0.332,72,0.1,0.1,0.4,-0.14,0.02,0.98,1.00000,-0.00003,0.00013,-0.00013,0.064,0.0760
2025,10,12,16:03:56.114,-0.330,74,0.1,0.1,0.4,-0.14,0.02,0.99,1.00000,-0.00003,0.00013,-0.00013,0.063,0.0770
2025,10,12,16:03:56.116,-0.328,76,0.1,0.1,0.4,-0.13,0.02,0.98,1.00000,0.00000,0.00013,-0.00010,0.063,0.0790
2025,10,12,16:03:56.118,-0.326,78,0.1,0.0,0.3,-0.13,0.02,0.97,1.00000,0.00000,0.00013,-0.00010,0.064,0.0800
2025,10,12,16:03:56.120,-0.324,80,0.1,0.1,0.3,-0.13,0.02,0.99,1.00000,0.00000,0.00013,-0.00010,0.064,0.0800
2025,10,12,16:03:56.122,-0.322,82,0.0,0.0,0.3,-0.13,0.02,0.98,1.00000,0.00000,0.00013,-0.00010,0.064,0.0800
2025,10,12,16:03:56.124,-0.320,84,0.2,0.0,0.3,-0.14,0.02,0.99,1.00000,0.00000,0.00013,-0.00010,0.063,0.0820
2025,10,12,16:03:56.126,-0.318,86,0.1,0.1,0.2,-0.13,0.02,0.99,1.00000,0.00000,0.00013,-0.00007,0.063,0.0790
2025,10,12,16:03:56.128,-0.316,88,0.1,0.0,0.2,-0.14,0.02,0.97,1.00000,0.00000,0.00013,-0.00007,0.063,0.0790
2025,10,12,16:03:56.130,-0.314,90,0.1,0.1,0.0,-0.13,0.02,0.99,1.00000,0.00000,0.00013,-0.00007,0.064,0.0760
2025,10,12,16:03:56.132,-0.312,92,0.2,0.0,0.0,-0.14,0.02,0.97,1.00000,0.00000,0.00013,-0.00007,0.063,0.0800
2025,10,12,16:03:56.134,-0.310,94,0.1,0.0,0.0,-0.14,0.03,0.97,1.00000,0.00000,0.00013,-0.00007,0.064,0.0770
2025,10,12,16:03:56.136,-0.308,96,0.2,0.0,0.0,-0.13,0.02,1.00,1.00000,0.00000,0.00013,-0.00007,0.064,0.0790
2025,10,12,16:03:56.138,-0.306,98,0.1,0.0,0.0,-0.14,0.02,0.98,1.00000,0.00000,0.00013,-0.00007,0.064,0.0790
2025,10,12,16:03:56.140,-0.304,100,0.0,0.0,0.0,-0.13,0.02,0.99,1.00000,0.00000,0.00013,-0.00007,0.063,0.0760
2025,10,12,16:03:56.142,-0.302,102,0.1,0.0,-0.3,-0.14,0.01,0.99,1.00000,0.00000,0.00013,-0.00010,0.064,0.0790
2025,10,12,16:03:56.144,-0.300,104,0.1,0.0,-0.2,-0.14,0.03,0.99,1.00000,0.00000,0.00013,-0.00010,0.063,0.0770
2025,10,12,16:03:56.146,-0.298,106,0.2,0.0,-0.3,-0.14,0.01,0.98,1.00000,0.00000,0.00013,-0.00010,0.063,0.0800
2025,10,12,16:03:56.148,-0.296,108,0.1,0.0,-0.3,-0.14,0.03,1.00,1.00000,0.00000,0.00013,-0.00010,0.063,0.0760
2025,10,12,16:03:56.150,-0.294,110,0.1,0.0,-0.4,-0.13,0.01,0.98,1.00000,0.00000,0.00013,-0.00010,0.064,0.0820
2025,10,12,16:03:56.152,-0.292,112,0.0,0.0,-0.4,-0.14,0.03,0.99,1.00000,0.00000,0.00017,-0.00013,0.063,0.0800
2025,10,12,16:03:56.154,-0.290,114,0.1,0.0,-0.4,-0.14,0.02,0.98,1.00000,0.00000,0.00013,-0.00013,0.063,0.0820
2025,10,12,16:03:56.156,-0.288,116,0.1,0.0,-0.4,-0.14,0.03,1.00,1.00000,0.00000,0.00013,-0.00013,0.064,0.0770
2025,10,12,16:03:56.158,-0.286,118,0.1,0.0,-0.4,-0.13,0.03,0.99,1.00000,0.00000,0.00017,-0.00013,0.063,0.0800
2025,10,12,16:03:56.160,-0.284,120,0.1,0.0,-0.6,-0.14,0.02,0.98,1.00000,0.00000,0.00017,-0.00017,0.063,0.0790
2025,10,12,16:03:56.162,-0.282,122,0.1,0.0,-0.4,-0.14,0.03,0.99,1.00000,0.00000,0.00017,-0.00017,0.064,0.0790
2025,10,12,16:03:56.164,-0.280,124,0.2,0.0,-0.4,-0.14,0.02,0.99,1.00000,0.00000,0.00017,-0.00017,0.063,0.0760
2025,10,12,16:03:56.166,-0.278,126,0.0,0.0,-0.4,-0.13,0.03,0.98,1.00000,0.00000,0.00017,-0.00017,0.063,0.0770
2025,10,12,16:03:56.168,-0.276,128,0.0,0.0,-0.4,-0.14,0.02,0.99,1.00000,0.00000,0.00017,-0.00020,0.063,0.0770
2025,10,12,16:03:56.170,-0.274,130,0.1,0.0,-0.3,-0.14,0.03,0.99,1.00000,0.00000,0.00013,-0.00020,0.064,0.0800
2025,10,12,16:03:56.172,-0.272,132,0.1,0.0,-0.4,-0.14,0.02,0.99,1.00000,0.00000,0.00017,-0.00020,0.063,0.0770
2025,10,12,16:03:56.174,-0.270,134,0.0,0.0,-0.2,-0.14,0.03,0.99,1.00000,0.00000,0.00013,-0.00020,0.063,0.0800
2025,10,12,16:03:56.176,-0.268,136,0.1,0.0,-0.2,-0.14,0.02,0.98,1.00000,0.00000,0.00013,-0.00020,0.063,0.0800
2025,10,12,16:03:56.178,-0.266,138,0.0,0.0,-0.3,-0.14,0.03,0.99,1.00000,0.00000,0.00017,-0.00023,0.063,0.0770
2025,10,12,16:03:56.180,-0.264,140,0.0,0.0,-0.3,-0.15,0.03,0.98,1.00000,0.00000,0.00013,-0.00023,0.063,0.0790
2025,10,12,16:03:56.182,-0.262,142,0.0,0.0,-0.2,-0.13,0.02,0.98,1.00000,0.00000,0.00013,-0.00023,0.063,0.0800
2025,10,12,16:03:56.184,-0.260,144,0.0,0.0,0.0,-0.14,0.02,0.99,1.00000,0.00000,0.00013,-0.00023,0.064,0.0790
2025,10,12,16:03:56.186,-0.258,146,0.0,0.0,-0.2,-0.13,0.03,0.97,1.00000,0.00000,0.00013,-0.00023,0.064,0.0800
2025,10,12,16:03:56.188,-0.256,148,0.0,0.0,0.0,-0.14,0.03,1.00,1.00000,0.00000,0.00013,-0.00023,0.063,0.0790
2025,10,12,16:03:56.190,-0.254,150,0.0,0.0,0.0,-0.14,0.02,0.97,1.00000,0.00000,0.00013,-0.00023,0.063,0.0820
2025,10,12,16:03:56.192,-0.252,152,-0.1,-0.2,0.0,-0.14,0.03,1.00,1.00000,0.00000,0.00013,-0.00023,0.063,0.0820
2025,10,12,16:03:56.194,-0.250,154,0.0,0.0,0.0,-0.14,0.02,0.97,1.00000,0.00000,0.00013,-0.00023,0.063,0.0790
2025,10,12,16:03:56.196,-0.248,156,-0.1,0.0,0.2,-0.14,0.03,0.98,1.00000,0.00000,0.00000,0.00000,0.064,0.0800
2025,10,12,16:03:56.198,-0.246,158,-0.1,0.0,0.0,-0.13,0.02,1.00,1.00000,0.00000,0.00000,0.00000,0.064,0.0800
2025,10,12,16:03:56.200,-0.244,160,0.0,0.0,0.2,-0.14,0.03,0.97,1.00000,0.00000,0.00000,0.00000,0.063,0.0790
2025,10,12,16:03:56.202,-0.242,162,-0.1,0.0,0.2,-0.13,0.02,1.00,1.00000,0.00000,0.00000,0.00000,0.063,0.0800
2025,10,12,16:03:56.204,-0.240,164,0.0,0.0,0.3,-0.14,0.02,0.95,1.00000,0.00000,0.00000,0.00000,0.063,0.0820
2025,10,12,16:03:56.206,-0.238,166,-0.1,0.0,0.3,-0.13,0.03,0.99,1.00000,0.00000,0.00000,0.00000,0.063,0.0800
2025,10,12,16:03:56.208,-0.236,168,-0.1,0.0,0.3,-0.14,0.02,1.01,1.00000,0.00000,0.00000,0.00000,0.064,0.0790
2025,10,12,16:03:56.210,-0.234,170,-0.1,0.0,0.3,-0.15,0.02,0.98,1.00000,0.00000,0.00000,0.00003,0.063,0.0800
2025,10,12,16:03:56.212,-0.232,172,-0.1,0.0,0.3,-0.13,0.02,0.98,1.00000,0.00000,0.00000,0.00003,0.063,0.0800
2025,10,12,16:03:56.214,-0.230,174,-0.1,-0.2,0.3,-0.13,0.01,0.98,1.00000,0.00000,0.00000,0.00003,0.063,0.0790
2025,10,12,16:03:56.216,-0.228,176,-0.2,-0.2,0.3,-0.13,0.02,0.98,1.00000,0.00000,0.00000,0.00003,0.064,0.0820
2025,10,12,16:03:56.218,-0.226,178,-0.1,-0.2,0.4,-0.13,0.02,0.97,1.00000,0.00000,0.00000,0.00003,0.063,0.0720
2025,10,12,16:03:56.220,-0.224,180,-0.1,-0.2,0.2,-0.15,0.02,0.99,1.00000,0.00000,0.00000,0.00007,0.064,0.0760
2025,10,12,16:03:56.222,-0.222,182,-0.2,-0.2,0.3,-0.13,0.02,0.97,1.00000,-0.00003,-0.00003,0.00007,0.063,0.0800
2025,10,12,16:03:56.224,-0.220,184,-0.1,-0.2,0.3,-0.12,0.02,0.98,1.00000,-0.00003,-0.00003,0.00007,0.063,0.0820
2025,10,12,16:03:56.226,-0.218,186,-0.2,-0.2,0.2,-0.11,0.01,0.98,1.00000,-0.00003,-0.00003,0.00007,0.063,0.0790
2025,10,12,16:03:56.228,-0.216,188,-0.1,-0.2,0.2,-0.13,0.02,0.97,1.00000,-0.00003,-0.00003,0.00007,0.064,0.0820
2025,10,12,16:03:56.230,-0.214,190,-0.1,-0.2,0.0,-0.12,0.01,0.97,1.00000,-0.00003,-0.00003,0.00007,0.063,0.0820
2025,10,12,16:03:56.232,-0.212,192,-0.1,0.0,0.2,-0.13,0.02,0.98,1.00000,-0.00003,-0.00003,0.00007,0.064,0.0800
2025,10,12,16:03:56.234,-0.210,194,-0.1,0.0,0.2,-0.13,0.01,0.98,1.00000,-0.00003,-0.00003,0.00007,0.064,0.0760
2025,10,12,16:03:56.236,-0.208,196,-0.2,-0.2,0.0,-0.13,0.01,0.99,1.00000,-0.00003,-0.00003,0.00007,0.063,0.0770
2025,10,12,16:03:56.238,-0.206,198,-0.1,-0.2,0.0,-0.12,0.01,0.97,1.00000,-0.00003,-0.00003,0.00010,0.064,0.0800
2025,10,12,16:03:56.240,-0.204,200,-0.1,-0.2,0.0,-0.13,0.01,0.99,1.00000,-0.00003,-0.00003,0.00010,0.063,0.0790
2025,10,12,16:03:56.242,-0.202,202,-0.2,0.0,0.0,-0.12,0.01,1.02,1.00000,-0.00007,-0.00007,0.00010,0.064,0.0790
2025,10,12,16:03:56.244,-0.200,204,-0.1,-0.2,0.0,-0.13,0.01,0.98,1.00000,-0.00007,-0.00007,0.00010,0.063,0.0790
2025,10,12,16:03:56.246,-0.198,206,-0.1,-0.2,0.0,-0.13,0.01,0.99,1.00000,-0.00007,-0.00007,0.00010,0.064,0.0790
2025,10,12,16:03:56.248,-0.196,208,-0.2,-0.2,0.0,-0.12,0.01,0.97,1.00000,-0.00007,-0.00007,0.00010,0.064,0.0790
2025,10,12,16:03:56.250,-0.194,210,-0.1,0.0,0.0,-0.13,0.03,0.99,1.00000,-0.00007,-0.00007,0.00010,0.063,0.0770
2025,10,12,16:03:56.252,-0.192,212,-0.1,-0.2,0.0,-0.11,0.00,1.01,1.00000,-0.00007,-0.00007,0.00010,0.063,0.0790
2025,10,12,16:03:56.254,-0.190,214,-0.1,0.0,0.0,-0.12,0.01,0.98,1.00000,-0.00007,-0.00007,0.00010,0.063,0.0760
2025,10,12,16:03:56.256,-0.188,216,-0.2,0.0,0.0,-0.12,0.03,0.99,1.00000,-0.00007,-0.00007,0.00010,0.064,0.0770
2025,10,12,16:03:56.258,-0.186,218,-0.2,0.0,0.0,-0.11,0.01,0.95,1.00000,-0.00007,-0.00007,0.00010,0.063,0.0770
2025,10,12,16:03:56.260,-0.184,220,-0.1,-0.2,0.2,-0.14,0.02,0.99,1.00000,-0.00010,-0.00007,0.00010,0.063,0.0770
2025,10,12,16:03:56.262,-0.182,222,-0.1,0.0,0.3,-0.11,0.00,1.01,1.00000,-0.00010,-0.00007,0.00010,0.063,0.0790
2025,10,12,16:03:56.264,-0.180,224,-0.2,0.0,0.3,-0.15,0.00,1.00,1.00000,-0.00010,-0.00007,0.00010,0.064,0.0790
2025,10,12,16:03:56.266,-0.178,226,-0.4,0.0,0.3,-0.10,0.02,1.01,1.00000,-0.00010,-0.00007,0.00013,0.064,0.0770
2025,10,12,16:03:56.268,-0.176,228,-0.2,0.0,0.2,-0.12,0.01,0.98,1.00000,-0.00010,-0.00010,0.00013,0.063,0.0800
2025,10,12,16:03:56.270,-0.174,230,-0.4,0.0,0.2,-0.10,0.04,1.02,1.00000,-0.00010,-0.00010,0.00013,0.064,0.0770
2025,10,12,16:03:56.272,-0.172,232,-0.1,0.0,0.2,-0.12,0.00,0.99,1.00000,-0.00010,-0.00010,0.00013,0.063,0.0790
2025,10,12,16:03:56.274,-0.170,234,-0.2,0.0,0.3,-0.11,0.04,0.97,1.00000,-0.00013,-0.00007,0.00013,0.063,0.0760
2025,10,12,16:03:56.276,-0.168,236,-0.2,0.0,0.0,-0.11,0.00,1.08,1.00000,-0.00013,-0.00010,0.00013,0.063,0.0760
2025,10,12,16:03:56.278,-0.166,238,-0.1,0.0,0.2,-0.10,0.02,1.10,1.00000,-0.00013,-0.00010,0.00013,0.064,0.0790
2025,10,12,16:03:56.280,-0.164,240,-0.2,0.0,0.2,-0.13,0.00,1.21,1.00000,-0.00013,-0.00010,0.00013,0.064,0.0800
2025,10,12,16:03:56.282,-0.162,242,-0.2,0.0,0.2,-0.10,0.00,1.26,1.00000,-0.00013,-0.00010,0.00013,0.064,0.0760
2025,10,12,16:03:56.284,-0.160,244,-0.2,-0.2,0.3,-0.11,0.01,1.40,1.00000,-0.00013,-0.00010,0.00017,0.064,0.0800
2025,10,12,16:03:56.286,-0.158,246,-0.1,0.1,0.4,-0.32,0.13,1.80,1.00000,-0.00013,-0.00010,0.00017,0.063,0.0820
2025,10,12,16:03:56.288,-0.156,248,0.5,0.6,0.6,0.10,-0.14,1.73,1.00000,-0.00013,-0.00007,0.00017,0.063,0.0790
2025,10,12,16:03:56.290,-0.154,0,-0.7,-0.6,0.3,-1.82,0.43,5.51,1.00000,-0.00013,-0.00010,0.00017,0.063,0.0740
2025,10,12,16:03:56.292,-0.152,2,-21.1,-5.4,0.4,-0.47,-3.19,13.00,0.99997,-0.00053,-0.00020,0.00020,0.063,0.0760
2025,10,12,16:03:56.294,-0.150,4,-19.7,-7.9,4.4,2.72,0.06,7.76,0.99997,-0.00087,-0.00033,0.00027,0.063,0.0800
2025,10,12,16:03:56.296,-0.148,6,-7.8,-11.8,9.0,-1.99,-0.50,8.99,0.99997,-0.00100,-0.00053,0.00043,0.063,0.0800
2025,10,12,16:03:56.298,-0.146,8,4.1,-12.1,4.1,-0.11,0.30,8.63,0.99997,-0.00093,-0.00073,0.00050,0.063,0.0770
2025,10,12,16:03:56.300,-0.144,10,6.0,-10.7,5.9,0.19,-0.56,9.79,0.99997,-0.00083,-0.00093,0.00060,0.063,0.0820
2025,10,12,16:03:56.302,-0.142,12,2.6,-1.4,8.1,-0.59,1.11,8.36,0.99997,-0.00077,-0.00097,0.00073,0.063,0.0770
2025,10,12,16:03:56.304,-0.140,14,-1.4,2.7,5.5,-0.79,0.09,9.13,0.99997,-0.00080,-0.00090,0.00083,0.064,0.0800
2025,10,12,16:03:56.306,-0.138,16,0.9,-7.5,0.2,-0.81,0.12,9.25,0.99997,-0.00077,-0.00103,0.00083,0.063,0.0800
2025,10,12,16:03:56.308,-0.136,18,2.5,-9.0,1.7,0.56,-0.26,9.24,0.99997,-0.00073,-0.00120,0.00087,0.063,0.0790
2025,10,12,16:03:56.310,-0.134,20,2.2,-10.7,4.4,-0.61,-0.16,9.18,0.99997,-0.00070,-0.00137,0.00097,0.063,0.0770
2025,10,12,16:03:56.312,-0.132,22,4.6,-8.4,-6.0,0.01,0.27,8.96,0.99997,-0.00063,-0.00153,0.00083,0.063,0.0770
2025,10,12,16:03:56.314,-0.130,24,2.0,-4.8,-5.2,-0.57,0.17,8.82,0.99997,-0.00057,-0.00160,0.00077,0.063,0.0790
2025,10,12,16:03:56.316,-0.128,26,1.2,-6.1,-7.9,-0.28,-0.10,8.77,0.99997,-0.00057,-0.00173,0.00063,0.064,0.0770
2025,10,12,16:03:56.318,-0.126,28,0.4,-5.5,-11.4,-0.56,-0.06,8.56,0.99997,-0.00057,-0.00183,0.00043,0.064,0.0740
2025,10,12,16:03:56.320,-0.124,30,0.5,-5.9,-10.4,-0.28,-0.14,8.39,0.99997,-0.00053,-0.00193,0.00023,0.063,0.0770
2025,10,12,16:03:56.322,-0.122,32,2.6,-4.1,-11.6,0.01,-0.12,8.60,0.99997,-0.00050,-0.00200,0.00003,0.063,0.0790
2025,10,12,16:03:56.324,-0.120,34,3.4,-5.4,-14.9,-0.23,0.15,8.52,0.99997,-0.00043,-0.00210,-0.00020,0.063,0.0800
2025,10,12,16:03:56.326,-0.118,36,4.3,-5.8,-16.8,-0.07,0.22,8.61,0.99997,-0.00037,-0.00220,-0.00050,0.063,0.0790
2025,10,12,16:03:56.328,-0.116,38,4.4,-6.5,-19.1,0.04,0.42,8.57,0.99997,-0.00027,-0.00230,-0.00083,0.064,0.0770
2025,10,12,16:03:56.330,-0.114,40,5.3,-7.3,-21.6,0.09,0.06,8.61,0.99997,-0.00020,-0.00243,-0.00120,0.063,0.0800
2025,10,12,16:03:56.332,-0.112,42,4.0,-6.9,-23.8,0.16,0.22,8.65,0.99997,-0.00010,-0.00257,-0.00160,0.063,0.0770
2025,10,12,16:03:56.334,-0.110,44,4.7,-5.6,-27.7,-0.27,-0.06,8.85,0.99997,-0.00003,-0.00267,-0.00210,0.063,0.0790
2025,10,12,16:03:56.336,-0.108,46,5.5,-2.3,-31.4,-0.26,0.12,8.57,0.99997,0.00003,-0.00270,-0.00263,0.063,0.0790
2025,10,12,16:03:56.338,-0.106,48,4.4,-3.0,-35.4,-0.45,0.09,8.75,0.99997,0.00010,-0.00277,-0.00327,0.063,0.0800
2025,10,12,16:03:56.340,-0.104,50,6.1,-5.1,-36.6,-0.01,0.03,8.55,0.99997,0.00023,-0.00283,-0.00390,0.064,0.0770
2025,10,12,16:03:56.342,-0.102,52,4.3,-4.9,-39.6,0.21,0.04,8.72,0.99997,0.00030,-0.00293,-0.00460,0.063,0.0800
2025,10,12,16:03:56.344,-0.100,54,4.6,-4.9,-38.1,0.24,0.00,8.54,0.99997,0.00037,-0.00303,-0.00527,0.063,0.0770
2025,10,12,16:03:56.346,-0.098,56,4.6,-3.5,-34.6,-0.53,0.48,8.84,0.99997,0.00047,-0.00307,-0.00587,0.064,0.0770
2025,10,12,16:03:56.348,-0.096,58,4.0,-1.3,-38.4,-0.09,0.20,8.62,0.99997,0.00053,-0.00310,-0.00653,0.064,0.0760
2025,10,12,16:03:56.350,-0.094,60,3.3,-1.4,-39.1,0.11,0.05,8.61,0.99997,0.00060,-0.00313,-0.00723,0.063,0.0770
2025,10,12,16:03:56.352,-0.092,62,2.6,-4.2,-32.5,-0.02,0.10,8.57,0.99993,0.00063,-0.00320,-0.00780,0.063,0.0800
2025,10,12,16:03:56.354,-0.090,64,4.3,-0.7,-33.9,0.35,0.12,8.66,0.99993,0.00073,-0.00323,-0.00837,0.063,0.0790
2025,10,12,16:03:56.356,-0.088,66,2.9,0.3,-35.0,-0.06,0.54,8.58,0.99993,0.00077,-0.00320,-0.00900,0.064,0.0800
2025,10,12,16:03:56.358,-0.086,68,6.5,1.1,-33.5,0.10,0.44,8.47,0.99993,0.00090,-0.00320,-0.00957,0.063,0.0800
2025,10,12,16:03:56.360,-0.084,70,4.8,0.8,-35.4,0.16,0.64,8.75,0.99993,0.00097,-0.00317,-0.01020,0.064,0.0770
2025,10,12,16:03:56.362,-0.082,72,4.6,1.3,-34.0,0.13,0.41,8.62,0.99993,0.00107,-0.00317,-0.01080,0.063,0.0800
2025,10,12,16:03:56.364,-0.080,74,3.7,2.2,-33.8,-0.15,0.21,8.74,0.99990,0.00113,-0.00310,-0.01137,0.063,0.0770
2025,10,12,16:03:56.366,-0.078,76,3.6,3.2,-35.9,-0.20,-0.14,8.66,0.99990,0.00120,-0.00307,-0.01200,0.063,0.0790
2025,10,12,16:03:56.368,-0.076,78,3.0,5.5,-37.5,0.24,0.04,8.63,0.99990,0.00127,-0.00297,-0.01267,0.063,0.0800
2025,10,12,16:03:56.370,-0.074,80,3.6,4.6,-31.7,-0.22,-0.18,8.70,0.99990,0.00133,-0.00287,-0.01320,0.063,0.0740
2025,10,12,16:03:56.372,-0.072,82,3.6,6.4,-31.0,0.13,0.25,8.54,0.99990,0.00140,-0.00277,-0.01377,0.063,0.0800
2025,10,12,16:03:56.374,-0.070,84,2.9,8.4,-35.3,0.08,0.28,8.79,0.99987,0.00143,-0.00263,-0.01437,0.063,0.0790
2025,10,12,16:03:56.376,-0.068,86,2.6,7.7,-30.4,-0.22,0.20,8.50,0.99987,0.00150,-0.00250,-0.01490,0.063,0.0800
2025,10,12,16:03:56.378,-0.066,88,1.6,9.7,-34.6,-0.04,0.14,8.75,0.99987,0.00153,-0.00230,-0.01550,0.063,0.0790
2025,10,12,16:03:56.380,-0.064,90,0.9,8.3,-36.4,-0.35,-0.12,8.78,0.99983,0.00153,-0.00217,-0.01613,0.063,0.0790
2025,10,12,16:03:56.382,-0.062,92,0.8,9.0,-37.8,0.06,0.09,8.39,0.99983,0.00157,-0.00200,-0.01680,0.063,0.0800
2025,10,12,16:03:56.384,-0.060,94,2.6,9.4,-39.6,-0.38,0.00,8.71,0.99983,0.00160,-0.00183,-0.01750,0.063,0.0770
2025,10,12,16:03:56.386,-0.058,96,2.7,9.4,-43.8,-0.08,0.33,8.39,0.99980,0.00167,-0.00167,-0.01827,0.064,0.0800
2025,10,12,16:03:56.388,-0.056,98,2.7,9.4,-45.7,-0.09,0.20,8.67,0.99980,0.00173,-0.00153,-0.01907,0.064,0.0790
2025,10,12,16:03:56.390,-0.054,100,2.3,8.5,-47.2,0.04,-0.06,8.64,0.99977,0.00177,-0.00137,-0.01987,0.063,0.0800
2025,10,12,16:03:56.392,-0.052,102,2.2,9.2,-48.6,0.11,0.23,8.47,0.99977,0.00180,-0.00120,-0.02073,0.064,0.0720
2025,10,12,16:03:56.394,-0.050,104,2.6,9.7,-47.9,-0.44,0.07,8.65,0.99973,0.00187,-0.00103,-0.02157,0.063,0.0800
2025,10,12,16:03:56.396,-0.048,106,2.7,10.6,-48.9,-0.35,0.41,8.46,0.99973,0.00190,-0.00083,-0.02243,0.064,0.0790
2025,10,12,16:03:56.398,-0.046,108,4.6,9.9,-52.0,-0.42,0.19,8.67,0.99970,0.00200,-0.00067,-0.02333,0.063,0.0760
2025,10,12,16:03:56.400,-0.044,110,3.6,9.8,-54.8,-0.23,0.20,8.59,0.99970,0.00207,-0.00050,-0.02427,0.063,0.0770
2025,10,12,16:03:56.402,-0.042,112,2.5,9.2,-59.1,-0.35,-0.06,8.63,0.99967,0.00210,-0.00033,-0.02530,0.063,0.0770
2025,10,12,16:03:56.404,-0.040,114,2.3,10.1,-63.3,-0.29,-0.36,8.73,0.99963,0.00217,-0.00017,-0.02643,0.064,0.0790
2025,10,12,16:03:56.406,-0.038,116,1.6,11.1,-65.0,-0.12,-0.18,8.47,0.99960,0.00220,0.00000,-0.02757,0.064,0.0740
2025,10,12,16:03:56.408,-0.036,118,2.5,11.2,-64.8,-0.38,-0.18,8.58,0.99957,0.00223,0.00020,-0.02870,0.064,0.0800
2025,10,12,16:03:56.410,-0.034,120,3.2,10.4,-66.8,-0.45,0.09,8.62,0.99953,0.00230,0.00037,-0.02983,0.063,0.0760
2025,10,12,16:03:56.412,-0.032,122,4.3,10.6,-68.2,-0.26,0.24,8.44,0.99950,0.00240,0.00057,-0.03103,0.063,0.0800
2025,10,12,16:03:56.414,-0.030,124,3.0,10.2,-67.6,-0.27,-0.01,8.71,0.99947,0.00243,0.00073,-0.03223,0.063,0.0800
2025,10,12,16:03:56.416,-0.028,126,3.9,9.7,-61.1,-0.68,0.07,8.47,0.99943,0.00250,0.00093,-0.03330,0.063,0.0800
2025,10,12,16:03:56.418,-0.026,128,3.2,9.1,-64.6,-0.47,0.29,8.45,0.99940,0.00257,0.00107,-0.03440,0.063,0.0820
2025,10,12,16:03:56.420,-0.024,130,4.6,7.8,-67.5,-0.48,-0.07,8.56,0.99933,0.00267,0.00120,-0.03560,0.063,0.0770
2025,10,12,16:03:56.422,-0.022,132,4.4,7.0,-64.3,-0.68,0.26,8.41,0.99930,0.00273,0.00133,-0.03670,0.063,0.0790
2025,10,12,16:03:56.424,-0.020,134,3.9,6.2,-64.4,-0.39,0.00,8.33,0.99927,0.00280,0.00143,-0.03783,0.064,0.0800
2025,10,12,16:03:56.426,-0.018,136,4.0,2.7,-67.4,-0.49,0.22,8.54,0.99920,0.00287,0.00150,-0.03900,0.063,0.0790
2025,10,12,16:03:56.428,-0.016,138,4.4,2.2,-67.1,-0.59,0.03,8.41,0.99917,0.00297,0.00153,-0.04017,0.063,0.0800
2025,10,12,16:03:56.430,-0.014,140,4.0,3.2,-67.5,-0.57,0.03,8.45,0.99913,0.00303,0.00160,-0.04137,0.064,0.0760
2025,10,12,16:03:56.432,-0.012,142,3.2,0.8,-69.7,-0.16,-0.12,8.40,0.99907,0.00310,0.00160,-0.04257,0.063,0.0790
2025,10,12,16:03:56.434,-0.010,144,2.9,-2.0,-64.6,-0.57,-0.03,8.47,0.99903,0.00313,0.00157,-0.04370,0.064,0.0790
2025,10,12,16:03:56.436,-0.008,146,3.4,-1.9,-60.8,-0.52,0.17,8.56,0.99897,0.00320,0.00153,-0.04477,0.063,0.0790
2025,10,12,16:03:56.438,-0.006,148,3.2,-2.0,-59.0,-0.21,0.16,8.25,0.99893,0.00323,0.00150,-0.04580,0.064,0.0790
2025,10,12,16:03:56.440,-0.004,150,4.4,-5.9,-53.6,-0.63,0.15,8.12,0.99890,0.00330,0.00140,-0.04673,0.064,0.0790
2025,10,12,16:03:56.442,-0.002,152,3.3,-7.3,-52.8,-0.04,0.79,8.71,0.99883,0.00337,0.00127,-0.04767,0.063,0.0500
2025,10,12,16:03:56.444,0.000,154,7.1,-8.7,-50.1,-0.21,0.30,8.38,0.99880,0.00347,0.00113,-0.04853,0.064,0.0790
2025,10,12,16:03:56.446,0.002,156,5.8,-7.9,-45.7,-0.21,0.82,8.38,0.99877,0.00357,0.00097,-0.04933,0.063,0.0820
2025,10,12,16:03:56.448,0.004,158,6.0,-7.2,-41.5,0.05,0.19,8.38,0.99873,0.00367,0.00083,-0.05003,0.066,0.0790
2025,10,12,16:03:56.450,0.006,160,5.0,-10.1,-41.3,-0.62,0.11,8.58,0.99870,0.00377,0.00067,-0.05077,0.063,0.0800
2025,10,12,16:03:56.452,0.008,162,3.0,-6.9,-39.6,-0.20,-0.26,8.40,0.99867,0.00380,0.00053,-0.05147,0.064,0.0790
2025,10,12,16:03:56.454,0.010,164,2.7,-10.8,-36.6,-0.69,-0.22,8.50,0.99863,0.00383,0.00037,-0.05210,0.064,0.0790
2025,10,12,16:03:56.456,0.012,166,3.0,-9.3,-40.6,0.23,-0.21,8.46,0.99857,0.00387,0.00020,-0.05280,0.063,0.0770
2025,10,12,16:03:56.458,0.014,168,2.2,-6.9,-39.2,-0.79,0.06,8.55,0.99853,0.00390,0.00007,-0.05350,0.063,0.0790
2025,10,12,16:03:56.460,0.016,170,3.4,-7.0,-43.4,0.09,0.11,8.46,0.99850,0.00397,0.00000,-0.05427,0.063,0.0760
2025,10,12,16:03:56.462,0.018,172,2.9,-4.2,-48.5,-0.39,0.52,8.57,0.99847,0.00400,-0.00010,-0.05510,0.064,0.0800
2025,10,12,16:03:56.464,0.020,174,3.0,-6.8,-44.0,0.06,0.02,8.32,0.99840,0.00407,-0.00020,-0.05587,0.063,0.0760
2025,10,12,16:03:56.466,0.022,176,1.6,-6.2,-48.9,0.44,0.53,8.61,0.99837,0.00410,-0.00030,-0.05673,0.063,0.0930
2025,10,12,16:03:56.468,0.024,178,3.3,-4.4,-51.1,0.12,0.03,8.41,0.99830,0.00413,-0.00040,-0.05760,0.061,0.0660
2025,10,12,16:03:56.470,0.026,180,3.4,-3.1,-47.8,-0.05,0.26,8.62,0.99827,0.00420,-0.00043,-0.05843,0.063,0.0760
2025,10,12,16:03:56.472,0.028,182,4.0,0.0,-48.6,-0.16,0.15,8.41,0.99820,0.00427,-0.00043,-0.05930,0.064,0.0800
2025,10,12,16:03:56.474,0.030,184,3.0,-1.9,-50.7,0.13,0.29,8.49,0.99817,0.00433,-0.00047,-0.06017,0.063,0.0770
2025,10,12,16:03:56.476,0.032,186,3.4,-2.3,-49.7,0.44,0.07,8.69,0.99810,0.00437,-0.00053,-0.06103,0.063,0.0740
2025,10,12,16:03:56.478,0.034,188,2.7,-1.4,-45.5,0.40,0.11,8.39,0.99807,0.00443,-0.00053,-0.06183,0.063,0.0800
2025,10,12,16:03:56.480,0.036,190,2.9,0.4,-46.6,0.55,-0.02,8.50,0.99800,0.00447,-0.00053,-0.06263,0.064,0.0770
2025,10,12,16:03:56.482,0.038,192,2.0,3.2,-46.1,-0.31,0.25,8.63,0.99797,0.00453,-0.00047,-0.06347,0.063,0.0800
2025,10,12,16:03:56.484,0.040,194,1.9,6.4,-47.3,-0.17,-0.12,8.54,0.99790,0.00457,-0.00037,-0.06427,0.064,0.0820
2025,10,12,16:03:56.486,0.042,196,0.9,7.8,-45.5,-0.10,0.17,8.51,0.99787,0.00460,-0.00023,-0.06507,0.063,0.0800
2025,10,12,16:03:56.488,0.044,198,1.1,6.7,-45.7,-0.33,0.14,8.58,0.99780,0.00460,-0.00010,-0.06587,0.063,0.0440
2025,10,12,16:03:56.490,0.046,200,0.9,8.5,-47.1,0.46,0.20,8.52,0.99773,0.00463,0.00000,-0.06670,0.066,0.0580
2025,10,12,16:03:56.492,0.048,202,2.2,6.7,-41.2,-0.32,0.48,8.44,0.99770,0.00470,0.00013,-0.06740,0.064,0.0790
2025,10,12,16:03:56.494,0.050,204,2.3,8.5,-46.2,1.04,0.26,8.75,0.99763,0.00473,0.00027,-0.06820,0.063,0.0770
2025,10,12,16:03:56.496,0.052,206,1.6,11.1,-37.1,-0.74,0.48,8.52,0.99760,0.00477,0.00047,-0.06887,0.063,0.0760
2025,10,12,16:03:56.498,0.054,208,1.8,12.6,-39.2,-0.06,-0.01,8.63,0.99753,0.00483,0.00070,-0.06953,0.063,0.0800
2025,10,12,16:03:56.500,0.056,210,-0.1,11.6,-38.7,-1.01,0.12,8.54,0.99750,0.00483,0.00090,-0.07020,0.064,0.0790
2025,10,12,16:03:56.502,0.058,212,1.5,10.6,-39.2,-0.08,0.23,8.46,0.99747,0.00487,0.00110,-0.07090,0.064,0.0790
2025,10,12,16:03:56.504,0.060,214,0.9,9.9,-36.0,-0.39,-0.41,9.01,0.99740,0.00490,0.00127,-0.07153,0.063,0.0790
2025,10,12,16:03:56.506,0.062,216,-0.7,10.6,-37.7,-0.51,0.16,8.36,0.99737,0.00490,0.00147,-0.07217,0.064,0.0800
2025,10,12,16:03:56.508,0.064,218,-0.4,11.6,-43.6,-0.54,0.20,8.78,0.99730,0.00490,0.00167,-0.07293,0.064,0.0820
2025,10,12,16:03:56.510,0.066,220,-0.4,13.3,-36.7,0.04,-0.16,8.45,0.99727,0.00493,0.00190,-0.07357,0.063,0.0450
2025,10,12,16:03:56.512,0.068,222,-0.8,12.2,-33.2,-0.21,0.17,8.72,0.99720,0.00493,0.00210,-0.07413,0.063,0.0820
2025,10,12,16:03:56.514,0.070,224,-1.1,11.1,-25.4,0.00,-0.01,8.42,0.99717,0.00490,0.00230,-0.07460,0.063,0.0740
2025,10,12,16:03:56.516,0.072,226,0.8,9.8,-24.2,0.11,0.33,8.88,0.99713,0.00493,0.00250,-0.07500,0.063,0.0790
2025,10,12,16:03:56.518,0.074,228,2.9,11.2,-13.0,-0.30,0.09,8.68,0.99713,0.00500,0.00267,-0.07523,0.064,0.0820
2025,10,12,16:03:56.520,0.076,230,4.1,9.5,-14.7,0.08,0.42,8.61,0.99710,0.00510,0.00283,-0.07550,0.063,0.0770
2025,10,12,16:03:56.522,0.078,232,5.5,9.9,-17.7,-0.46,0.25,8.97,0.99710,0.00520,0.00300,-0.07580,0.064,0.0800
2025,10,12,16:03:56.524,0.080,234,3.9,10.6,-16.8,-0.28,1.00,8.08,0.99707,0.00527,0.00320,-0.07610,0.064,0.0770
2025,10,12,16:03:56.526,0.082,236,7.2,12.0,-17.8,-0.29,-0.86,8.50,0.99703,0.00543,0.00340,-0.07640,0.064,0.0770
2025,10,12,16:03:56.528,0.084,238,-6.0,7.3,-19.5,-0.60,0.28,9.31,0.99700,0.00533,0.00353,-0.07673,0.064,0.0800
2025,10,12,16:03:56.530,0.086,240,2.3,10.2,-20.7,0.55,-0.57,8.50,0.99700,0.00537,0.00370,-0.07710,0.064,0.0720
2025,10,12,16:03:56.532,0.088,242,2.6,13.0,-15.7,-0.71,-0.19,8.81,0.99697,0.00543,0.00393,-0.07737,0.064,0.0760
2025,10,12,16:03:56.534,0.090,244,3.2,12.0,-16.5,0.07,-0.37,8.91,0.99693,0.00550,0.00413,-0.07767,0.064,0.0790
2025,10,12,16:03:56.536,0.092,246,3.6,10.8,-10.7,-0.95,-0.17,8.79,0.99693,0.00560,0.00433,-0.07783,0.064,0.0760
2025,10,12,16:03:56.538,0.094,248,0.6,13.9,-5.3,-0.22,0.31,8.46,0.99690,0.00563,0.00457,-0.07793,0.063,0.0800
2025,10,12,16:03:56.540,0.096,0,3.0,10.8,-8.1,-0.77,-0.04,9.04,0.99690,0.00570,0.00477,-0.07810,0.063,0.0760
2025,10,12,16:03:56.542,0.098,2,1.5,11.2,-6.9,0.03,0.08,8.64,0.99690,0.00573,0.00493,-0.07820,0.064,0.0740
2025,10,12,16:03:56.544,0.100,4,2.5,12.0,-5.9,-0.04,0.32,8.58,0.99687,0.00580,0.00517,-0.07830,0.063,0.0800
2025,10,12,16:03:56.546,0.102,6,3.3,10.9,-6.2,-0.20,0.09,8.80,0.99687,0.00587,0.00533,-0.07840,0.064,0.0740
2025,10,12,16:03:56.548,0.104,8,3.6,11.3,-4.8,-0.34,0.35,8.80,0.99687,0.00593,0.00553,-0.07850,0.063,0.0790
2025,10,12,16:03:56.550,0.106,10,4.8,11.2,-5.2,-0.29,0.01,8.65,0.99687,0.00603,0.00573,-0.07860,0.063,0.0790
2025,10,12,16:03:56.552,0.108,12,4.0,9.9,-5.2,-0.14,0.10,8.83,0.99683,0.00613,0.00590,-0.07867,0.063,0.0820
2025,10,12,16:03:56.554,0.110,14,4.3,10.9,-4.5,-0.14,0.08,8.68,0.99683,0.00620,0.00607,-0.07877,0.064,0.0800
2025,10,12,16:03:56.556,0.112,16,4.7,9.8,-5.3,-0.21,0.05,8.81,0.99683,0.00630,0.00623,-0.07883,0.064,0.0720
2025,10,12,16:03:56.558,0.114,18,4.4,11.5,-4.9,-0.21,-0.02,8.71,0.99683,0.00640,0.00643,-0.07893,0.063,0.0790
2025,10,12,16:03:56.560,0.116,20,4.6,11.1,-5.1,-0.34,0.05,8.69,0.99680,0.00650,0.00663,-0.07903,0.063,0.0790
2025,10,12,16:03:56.562,0.118,22,4.0,11.3,-5.3,-0.29,-0.15,8.76,0.99680,0.00657,0.00683,-0.07910,0.063,0.0800
2025,10,12,16:03:56.564,0.120,24,4.6,11.5,-5.9,-0.19,0.09,8.71,0.99680,0.00667,0.00700,-0.07923,0.063,0.0800
2025,10,12,16:03:56.566,0.122,26,3.9,11.5,-5.9,-0.17,0.03,8.75,0.99677,0.00677,0.00720,-0.07933,0.063,0.0790
2025,10,12,16:03:56.568,0.124,28,4.1,11.9,-6.3,-0.18,0.11,8.76,0.99677,0.00683,0.00740,-0.07943,0.064,0.0770
2025,10,12,16:03:56.570,0.126,30,4.3,11.9,-6.0,-0.17,0.11,8.70,0.99677,0.00693,0.00760,-0.07953,0.064,0.0820
2025,10,12,16:03:56.572,0.128,32,4.7,11.9,-6.2,-0.23,0.10,8.77,0.99673,0.00703,0.00780,-0.07963,0.064,0.0790
2025,10,12,16:03:56.574,0.130,34,4.8,11.9,-6.0,-0.14,0.11,8.71,0.99673,0.00713,0.00803,-0.07973,0.063,0.0790
2025,10,12,16:03:56.576,0.132,36,5.3,11.3,-6.2,-0.18,0.18,8.82,0.99673,0.00723,0.00820,-0.07987,0.065,0.0530
2025,10,12,16:03:56.578,0.134,38,6.0,11.3,-5.9,-0.10,-0.04,8.79,0.99673,0.00737,0.00840,-0.07997,0.063,0.0790
2025,10,12,16:03:56.580,0.136,40,5.8,11.5,-5.9,-0.19,0.16,8.64,0.99670,0.00750,0.00860,-0.08007,0.064,0.0800
2025,10,12,16:03:56.582,0.138,42,6.1,11.6,-5.6,-0.19,0.11,8.76,0.99670,0.00760,0.00880,-0.08017,0.064,0.0790
2025,10,12,16:03:56.584,0.140,44,5.8,11.2,-5.9,-0.26,0.08,8.73,0.99670,0.00773,0.00897,-0.08027,0.063,0.0800
2025,10,12,16:03:56.586,0.142,46,5.7,12.2,-5.6,-0.18,0.06,8.80,0.99667,0.00783,0.00917,-0.08037,0.063,0.0790
2025,10,12,16:03:56.588,0.144,48,5.7,11.3,-5.8,-0.17,0.02,8.72,0.99667,0.00797,0.00937,-0.08047,0.063,0.0770
2025,10,12,16:03:56.590,0.146,50,5.4,12.3,-5.3,-0.09,0.07,8.80,0.99667,0.00807,0.00957,-0.08057,0.063,0.0770
2025,10,12,16:03:56.592,0.148,52,5.7,12.0,-5.5,-0.19,0.08,8.83,0.99663,0.00817,0.00977,-0.08063,0.063,0.0800
2025,10,12,16:03:56.594,0.150,54,5.4,12.6,-4.9,-0.22,0.18,8.80,0.99663,0.00830,0.01000,-0.08073,0.063,0.0790
