Year,Month,Day,Time,Flight_Time_(s),Sync,Gyro_X,Gyro_Y,Gyro_Z,Accel_X,Accel_Y,Accel_Z,Quat_1,Quat_2,Quat_3,Quat_4,Aux_Volts,Current
2026,4,7,13:00:28.806,-2.038,117,0.2,0.1,0.0,-0.11,0.01,0.99,1.00000,0.00000,0.00000,0.00000,0.055,0.0360
2026,4,7,13:00:28.808,-2.036,119,0.2,0.1,0.0,-0.11,0.01,0.99,1.00000,0.00000,0.00000,0.00000,0.055,0.0340
2026,4,7,13:00:28.810,-2.034,121,0.2,0.1,0.0,-0.11,0.01,0.99,1.00000,0.00000,0.00000,0.00000,0.055,0.0330
2026,4,7,13:00:28.812,-2.032,123,0.0,0.1,0.0,-0.11,0.01,0.99,1.00000,0.00000,0.00000,0.00000,0.055,0.0310
2026,4,7,13:00:28.814,-2.030,125,0.0,0.1,0.2,-0.11,0.01,0.99,1.00000,0.00000,0.00000,0.00000,0.055,0.0340
2026,4,7,13:00:28.816,-2.028,127,0.0,0.1,0.0,-0.11,0.01,0.99,1.00000,0.00000,0.00000,0.00000,0.055,0.0250
2026,4,7,13:00:28.818,-2.026,129,0.2,0.1,0.0,-0.11,0.01,0.99,1.00000,0.00000,0.00000,0.00000,0.055,0.0260
2026,4,7,13:00:28.820,-2.024,131,0.0,0.2,0.0,-0.11,0.01,0.99,1.00000,0.00000,0.00000,0.00000,0.055,0.0340
2026,4,7,13:00:28.822,-2.022,133,0.0,0.1,0.0,-0.11,0.01,0.99,1.00000,0.00000,0.00000,0.00000,0.056,0.0300
2026,4,7,13:00:28.824,-2.020,135,0.0,0.1,0.0,-0.11,0.01,0.99,1.00000,0.00000,0.00000,0.00000,0.055,0.0330
2026,4,7,13:00:28.826,-2.018,137,0.0,0.1,0.2,-0.11,0.01,0.99,1.00000,0.00000,0.00000,0.00000,0.055,0.0390
2026,4,7,13:00:28.828,-2.016,139,0.0,0.1,0.0,-0.11,0.01,0.99,1.00000,0.00000,0.00000,0.00000,0.055,0.0330
2026,4,7,13:00:28.830,-2.014,141,0.0,0.0,0.0,-0.11,0.01,0.99,1.00000,0.00000,0.00000,0.00000,0.055,0.0310
2026,4,7,13:00:28.832,-2.012,143,0.0,0.1,0.0,-0.11,0.01,0.99,1.00000,0.00000,0.00003,0.00000,0.055,0.0310
2026,4,7,13:00:28.834,-2.010,145,0.0,0.1,0.2,-0.11,0.01,0.99,1.00000,0.00000,0.00003,0.00000,0.055,0.0360
2026,4,7,13:00:28.836,-2.008,147,0.2,0.2,0.0,-0.11,0.01,0.99,1.00000,0.00003,0.00003,0.00000,0.055,0.0250
2026,4,7,13:00:28.838,-2.006,149,0.0,0.1,0.0,-0.11,0.01,0.99,1.00000,0.00003,0.00003,0.00000,0.055,0.0380
2026,4,7,13:00:28.840,-2.004,151,0.0,0.1,0.2,-0.11,0.01,0.99,1.00000,0.00003,0.00003,0.00000,0.055,0.0330
2026,4,7,13:00:28.842,-2.002,153,0.0,0.1,0.0,-0.11,0.01,0.99,1.00000,0.00003,0.00003,0.00003,0.055,0.0410
2026,4,7,13:00:28.844,-2.000,155,0.0,0.2,0.2,-0.11,0.01,0.99,1.00000,0.00003,0.00003,0.00003,0.055,0.0250
2026,4,7,13:00:28.846,-1.998,157,0.0,0.2,0.2,-0.11,0.01,0.99,1.00000,0.00003,0.00003,0.00003,0.055,0.0310
2026,4,7,13:00:28.848,-1.996,159,0.0,0.1,0.0,-0.11,0.01,0.99,1.00000,0.00003,0.00003,0.00003,0.055,0.0360
2026,4,7,13:00:28.850,-1.994,161,0.0,0.1,0.0,-0.11,0.01,0.99,1.00000,0.00003,0.00003,0.00003,0.055,0.0340
2026,4,7,13:00:28.852,-1.992,163,0.0,0.0,0.0,-0.11,0.01,0.99,1.00000,0.00003,0.00003,0.00003,0.056,0.0250
2026,4,7,13:00:28.854,-1.990,165,0.0,0.1,0.2,-0.11,0.01,0.99,1.00000,0.00003,0.00003,0.00003,0.055,0.0330
2026,4,7,13:00:28.856,-1.988,167,0.0,0.1,0.2,-0.11,0.01,0.99,1.00000,0.00003,0.00007,0.00003,0.055,0.0410
2026,4,7,13:00:28.858,-1.986,169,0.0,0.1,0.0,-0.11,0.01,0.98,1.00000,0.00003,0.00007,0.00003,0.055,0.0360
2026,4,7,13:00:28.860,-1.984,171,0.0,0.2,0.0,-0.11,0.01,0.99,1.00000,0.00003,0.00007,0.00003,0.056,0.0280
2026,4,7,13:00:28.862,-1.982,173,0.0,0.2,0.0,-0.11,0.01,0.99,1.00000,0.00003,0.00007,0.00003,0.055,0.0310
2026,4,7,13:00:28.864,-1.980,175,0.0,0.2,0.0,-0.12,0.01,0.99,1.00000,0.00003,0.00007,0.00003,0.055,0.0250
2026,4,7,13:00:28.866,-1.978,177,0.0,0.1,0.0,-0.12,0.01,0.99,1.00000,0.00003,0.00007,0.00003,0.056,0.0310
2026,4,7,13:00:28.868,-1.976,179,0.0,0.1,0.0,-0.12,0.01,0.99,1.00000,0.00003,0.00007,0.00003,0.055,0.0220
2026,4,7,13:00:28.870,-1.974,181,0.0,0.1,0.0,-0.12,0.01,0.99,1.00000,0.00003,0.00007,0.00003,0.055,0.0380
2026,4,7,13:00:28.872,-1.972,183,0.0,0.1,0.0,-0.12,0.01,0.98,1.00000,0.00003,0.00007,0.00003,0.056,0.0300
2026,4,7,13:00:28.874,-1.970,185,0.0,0.2,0.0,-0.12,0.02,0.99,1.00000,0.00003,0.00010,0.00003,0.055,0.0280
2026,4,7,13:00:28.876,-1.968,187,-0.1,0.1,0.0,-0.12,0.01,0.99,1.00000,0.00003,0.00010,0.00003,0.055,0.0300
2026,4,7,13:00:28.878,-1.966,189,0.0,0.1,-0.1,-0.12,0.01,0.99,1.00000,0.00003,0.00010,0.00003,0.056,0.0300
2026,4,7,13:00:28.880,-1.964,191,0.0,0.1,-0.1,-0.12,0.01,0.99,1.00000,0.00003,0.00010,0.00003,0.055,0.0310
2026,4,7,13:00:28.882,-1.962,193,0.0,0.2,0.0,-0.11,0.02,0.99,1.00000,0.00003,0.00010,0.00003,0.055,0.0260
2026,4,7,13:00:28.884,-1.960,195,0.0,0.2,-0.1,-0.12,0.01,0.99,1.00000,0.00003,0.00010,0.00003,0.055,0.0250
2026,4,7,13:00:28.886,-1.958,197,0.0,0.1,-0.1,-0.12,0.01,0.99,1.00000,0.00003,0.00010,0.00003,0.055,0.0390
2026,4,7,13:00:28.888,-1.956,199,0.0,0.1,-0.1,-0.12,0.01,0.99,1.00000,0.00003,0.00010,0.00003,0.055,0.0280
2026,4,7,13:00:28.890,-1.954,201,0.0,0.1,-0.1,-0.12,0.01,0.99,1.00000,0.00003,0.00010,0.00000,0.055,0.0280
2026,4,7,13:00:28.892,-1.952,203,0.0,0.1,-0.3,-0.12,0.01,0.99,1.00000,0.00003,0.00010,0.00000,0.055,0.0230
2026,4,7,13:00:28.894,-1.950,205,0.0,0.1,-0.2,-0.12,0.01,0.99,1.00000,0.00003,0.00010,0.00000,0.056,0.0330
2026,4,7,13:00:28.896,-1.948,207,-0.1,0.1,-0.2,-0.12,0.01,0.99,1.00000,0.00003,0.00010,0.00000,0.055,0.0330
2026,4,7,13:00:28.898,-1.946,209,0.0,0.1,-0.2,-0.12,0.01,0.99,1.00000,0.00003,0.00013,0.00000,0.056,0.0310
2026,4,7,13:00:28.900,-1.944,211,0.0,0.1,-0.2,-0.12,0.01,0.98,1.00000,0.00003,0.00013,0.00000,0.055,0.0330
2026,4,7,13:00:28.902,-1.942,213,0.0,0.1,-0.2,-0.12,0.01,0.99,1.00000,0.00003,0.00013,0.00000,0.055,0.0260
2026,4,7,13:00:28.904,-1.940,215,0.0,0.2,-0.2,-0.12,0.01,0.99,1.00000,0.00003,0.00013,0.00000,0.055,0.0280
2026,4,7,13:00:28.906,-1.938,217,-0.1,0.2,-0.3,-0.12,0.01,0.99,1.00000,0.00003,0.00013,0.00000,0.055,0.0230
2026,4,7,13:00:28.908,-1.936,219,0.0,0.1,-0.2,-0.12,0.01,0.99,1.00000,0.00003,0.00013,0.00000,0.055,0.0250
2026,4,7,13:00:28.910,-1.934,221,0.0,0.0,-0.2,-0.12,0.01,0.99,1.00000,0.00003,0.00013,0.00000,0.055,0.0260
2026,4,7,13:00:28.912,-1.932,223,0.0,0.1,-0.3,-0.12,0.01,0.98,1.00000,0.00003,0.00013,0.00000,0.055,0.0340
2026,4,7,13:00:28.914,-1.930,225,-0.1,0.1,-0.2,-0.12,0.01,0.99,1.00000,0.00000,0.00013,0.00000,0.055,0.0340
2026,4,7,13:00:28.916,-1.928,227,-0.1,0.0,-0.2,-0.12,0.01,0.99,1.00000,0.00000,0.00013,0.00000,0.055,0.0230
2026,4,7,13:00:28.918,-1.926,229,0.0,0.0,-0.2,-0.12,0.01,0.99,1.00000,0.00000,0.00013,0.00000,0.055,0.0260
2026,4,7,13:00:28.920,-1.924,231,0.0,0.0,-0.3,-0.12,0.01,0.99,1.00000,0.00000,0.00013,0.00000,0.056,0.0360
2026,4,7,13:00:28.922,-1.922,233,0.0,0.1,-0.2,-0.12,0.01,0.99,1.00000,0.00000,0.00013,-0.00003,0.055,0.0280
2026,4,7,13:00:28.924,-1.920,235,-0.1,0.0,-0.2,-0.12,0.01,0.99,1.00000,0.00000,0.00013,-0.00003,0.055,0.0330
2026,4,7,13:00:28.926,-1.918,237,-0.1,0.1,-0.2,-0.12,0.01,0.99,1.00000,0.00000,0.00013,-0.00003,0.055,0.0340
2026,4,7,13:00:28.928,-1.916,239,-0.1,0.1,-0.2,-0.12,0.01,0.99,1.00000,0.00000,0.00013,-0.00003,0.055,0.0360
2026,4,7,13:00:28.930,-1.914,241,-0.1,0.1,-0.2,-0.12,0.01,0.99,1.00000,0.00000,0.00017,-0.00003,0.055,0.0310
2026,4,7,13:00:28.932,-1.912,243,-0.1,0.2,-0.2,-0.12,0.01,0.99,1.00000,0.00000,0.00017,-0.00003,0.055,0.0310
2026,4,7,13:00:28.934,-1.910,245,-0.1,0.0,-0.2,-0.12,0.01,0.98,1.00000,0.00000,0.00017,-0.00003,0.055,0.0260
2026,4,7,13:00:28.936,-1.908,247,-0.1,0.0,-0.2,-0.12,0.01,0.99,1.00000,0.00000,0.00017,-0.00003,0.055,0.0330
2026,4,7,13:00:28.938,-1.906,249,0.0,0.0,-0.2,-0.12,0.01,0.98,1.00000,0.00000,0.00017,-0.00003,0.055,0.0330
2026,4,7,13:00:28.940,-1.904,1,-0.1,0.1,-0.2,-0.12,0.01,0.99,1.00000,0.00000,0.00017,-0.00003,0.055,0.0260
2026,4,7,13:00:28.942,-1.902,3,-0.1,0.1,-0.2,-0.12,0.01,0.99,1.00000,0.00000,0.00017,-0.00007,0.055,0.0390
2026,4,7,13:00:28.944,-1.900,5,-0.1,0.0,0.0,-0.12,0.01,0.99,1.00000,0.00000,0.00017,-0.00007,0.055,0.0310
2026,4,7,13:00:28.946,-1.898,7,-0.3,0.0,-0.2,-0.12,0.01,0.99,1.00000,0.00000,0.00017,-0.00007,0.055,0.0300
2026,4,7,13:00:28.948,-1.896,9,-0.1,0.0,-0.2,-0.12,0.01,0.99,1.00000,0.00000,0.00017,-0.00007,0.055,0.0310
2026,4,7,13:00:28.950,-1.894,11,-0.1,0.1,-0.3,-0.12,0.01,0.98,1.00000,0.00000,0.00017,-0.00007,0.055,0.0260
2026,4,7,13:00:28.952,-1.892,13,-0.1,0.1,-0.3,-0.12,0.01,0.99,1.00000,0.00000,0.00017,-0.00007,0.055,0.0310
2026,4,7,13:00:28.954,-1.890,15,-0.3,0.0,-0.4,-0.12,0.01,0.99,1.00000,0.00000,0.00017,-0.00007,0.056,0.0260
2026,4,7,13:00:28.956,-1.888,17,-0.3,0.0,-0.3,-0.12,0.01,0.99,1.00000,-0.00003,0.00017,-0.00010,0.055,0.0330
2026,4,7,13:00:28.958,-1.886,19,-0.1,0.1,-0.3,-0.12,0.01,0.99,1.00000,-0.00003,0.00017,-0.00010,0.055,0.0260
2026,4,7,13:00:28.960,-1.884,21,-0.1,0.0,-0.3,-0.12,0.01,0.99,1.00000,-0.00003,0.00017,-0.00010,0.056,0.0360
2026,4,7,13:00:28.962,-1.882,23,-0.3,0.1,-0.3,-0.12,0.01,0.99,1.00000,-0.00003,0.00017,-0.00010,0.055,0.0310
2026,4,7,13:00:28.964,-1.880,25,-0.1,0.0,-0.3,-0.12,0.01,0.99,1.00000,-0.00003,0.00017,-0.00010,0.056,0.0340
2026,4,7,13:00:28.966,-1.878,27,-0.1,0.1,-0.3,-0.12,0.01,0.98,1.00000,-0.00003,0.00017,-0.00013,0.056,0.0360
2026,4,7,13:00:28.968,-1.876,29,-0.3,0.0,-0.3,-0.12,0.01,0.99,1.00000,-0.00003,0.00017,-0.00013,0.055,0.0230
2026,4,7,13:00:28.970,-1.874,31,-0.1,0.0,-0.3,-0.12,0.01,0.99,1.00000,-0.00003,0.00017,-0.00013,0.055,0.0390
2026,4,7,13:00:28.972,-1.872,33,-0.3,0.0,-0.3,-0.12,0.01,0.99,1.00000,-0.00007,0.00017,-0.00013,0.055,0.0380
2026,4,7,13:00:28.974,-1.870,35,-0.3,0.0,-0.4,-0.12,0.01,0.99,1.00000,-0.00007,0.00017,-0.00013,0.055,0.0330
2026,4,7,13:00:28.976,-1.868,37,-0.1,0.0,-0.3,-0.12,0.01,0.98,1.00000,-0.00007,0.00017,-0.00013,0.055,0.0280
2026,4,7,13:00:28.978,-1.866,39,-0.3,0.0,-0.3,-0.12,0.01,0.99,1.00000,-0.00007,0.00017,-0.00017,0.055,0.0280
2026,4,7,13:00:28.980,-1.864,41,-0.3,0.0,-0.3,-0.12,0.01,0.99,1.00000,-0.00007,0.00017,-0.00017,0.055,0.0340
2026,4,7,13:00:28.982,-1.862,43,-0.1,0.0,-0.3,-0.12,0.01,0.98,1.00000,-0.00007,0.00017,-0.00017,0.056,0.0280
2026,4,7,13:00:28.984,-1.860,45,-0.3,0.0,-0.3,-0.12,0.01,0.99,1.00000,-0.00007,0.00017,-0.00017,0.055,0.0330
2026,4,7,13:00:28.986,-1.858,47,-0.3,0.0,-0.3,-0.12,0.01,0.99,1.00000,-0.00010,0.00017,-0.00017,0.056,0.0310
2026,4,7,13:00:28.988,-1.856,49,-0.4,0.0,-0.4,-0.12,0.01,0.99,1.00000,-0.00010,0.00017,-0.00020,0.055,0.0300
2026,4,7,13:00:28.990,-1.854,51,-0.3,0.0,-0.3,-0.12,0.01,0.99,1.00000,-0.00010,0.00017,-0.00020,0.055,0.0330
2026,4,7,13:00:28.992,-1.852,53,-0.3,0.0,-0.3,-0.12,0.01,0.99,1.00000,-0.00010,0.00017,-0.00020,0.056,0.0280
2026,4,7,13:00:28.994,-1.850,55,-0.3,0.0,-0.3,-0.12,0.01,0.99,1.00000,-0.00010,0.00017,-0.00020,0.055,0.0260
2026,4,7,13:00:28.996,-1.848,57,-0.1,0.0,-0.2,-0.12,0.01,0.99,1.00000,-0.00010,0.00017,-0.00020,0.055,0.0280
2026,4,7,13:00:28.998,-1.846,59,-0.1,0.1,-0.3,-0.12,0.01,0.99,1.00000,-0.00013,0.00017,-0.00020,0.055,0.0340
2026,4,7,13:00:29.000,-1.844,61,-0.3,0.0,-0.2,-0.12,0.01,0.99,1.00000,-0.00013,0.00017,-0.00023,0.056,0.0340
2026,4,7,13:00:29.002,-1.842,63,-0.3,0.0,-0.3,-0.12,0.01,0.99,1.00000,-0.00013,0.00017,-0.00023,0.055,0.0340
2026,4,7,13:00:29.004,-1.840,65,-0.3,0.0,-0.3,-0.12,0.01,0.99,1.00000,-0.00013,0.00017,-0.00023,0.055,0.0280
2026,4,7,13:00:29.006,-1.838,67,-0.3,0.0,-0.3,-0.12,0.01,0.99,1.00000,-0.00013,0.00017,-0.00023,0.055,0.0300
2026,4,7,13:00:29.008,-1.836,69,-0.3,0.0,-0.3,-0.12,0.01,0.99,1.00000,-0.00013,0.00017,-0.00023,0.055,0.0250
2026,4,7,13:00:29.010,-1.834,71,-0.3,0.0,-0.2,-0.12,0.01,0.99,1.00000,-0.00017,0.00017,-0.00023,0.055,0.0250
2026,4,7,13:00:29.012,-1.832,73,-0.3,0.0,-0.3,-0.12,0.01,0.99,1.00000,-0.00017,0.00017,-0.00027,0.056,0.0300
2026,4,7,13:00:29.014,-1.830,75,-0.3,0.0,-0.3,-0.12,0.01,0.99,1.00000,-0.00017,0.00017,-0.00027,0.055,0.0390
2026,4,7,13:00:29.016,-1.828,77,-0.3,0.0,-0.3,-0.12,0.01,0.99,1.00000,-0.00017,0.00017,-0.00027,0.055,0.0250
2026,4,7,13:00:29.018,-1.826,79,-0.3,0.0,-0.3,-0.12,0.01,0.99,1.00000,-0.00017,0.00017,-0.00027,0.055,0.0310
2026,4,7,13:00:29.020,-1.824,81,-0.4,-0.1,-0.3,-0.12,0.00,0.99,1.00000,-0.00017,0.00017,-0.00027,0.055,0.0280
2026,4,7,13:00:29.022,-1.822,83,-0.3,0.0,-0.3,-0.12,0.01,0.99,1.00000,-0.00020,0.00017,-0.00027,0.055,0.0250
2026,4,7,13:00:29.024,-1.820,85,-0.3,-0.1,-0.3,-0.12,0.01,0.99,1.00000,-0.00020,0.00017,-0.00030,0.055,0.0330
2026,4,7,13:00:29.026,-1.818,87,-0.3,0.0,-0.3,-0.12,0.01,0.99,1.00000,-0.00020,0.00017,-0.00030,0.055,0.0300
2026,4,7,13:00:29.028,-1.816,89,-0.4,0.0,-0.3,-0.12,0.00,0.99,0.99997,-0.00020,0.00017,-0.00030,0.055,0.0310
2026,4,7,13:00:29.030,-1.814,91,-0.3,-0.1,-0.2,-0.12,0.01,0.99,0.99997,-0.00020,0.00017,-0.00030,0.055,0.0390
2026,4,7,13:00:29.032,-1.812,93,-0.3,0.0,-0.4,-0.12,0.00,0.99,0.99997,-0.00023,0.00017,-0.00030,0.055,0.0310
2026,4,7,13:00:29.034,-1.810,95,-0.3,0.0,-0.3,-0.12,0.00,0.99,0.99997,-0.00023,0.00017,-0.00033,0.055,0.0310
2026,4,7,13:00:29.036,-1.808,97,-0.3,-0.1,-0.3,-0.12,0.00,0.99,0.99997,-0.00023,0.00017,-0.00033,0.055,0.0260
2026,4,7,13:00:29.038,-1.806,99,-0.3,0.0,-0.3,-0.12,0.01,0.99,0.99997,-0.00023,0.00017,-0.00033,0.055,0.0360
2026,4,7,13:00:29.040,-1.804,101,-0.4,0.0,-0.3,-0.11,0.00,0.99,0.99997,-0.00023,0.00017,-0.00033,0.055,0.0220
2026,4,7,13:00:29.042,-1.802,103,-0.4,0.0,-0.4,-0.11,0.00,0.99,0.99997,-0.00027,0.00017,-0.00033,0.055,0.0280
2026,4,7,13:00:29.044,-1.800,105,-0.3,0.0,-0.3,-0.11,0.00,0.99,0.99997,-0.00027,0.00017,-0.00033,0.055,0.0260
2026,4,7,13:00:29.046,-1.798,107,-0.3,0.0,-0.4,-0.11,0.00,0.99,0.99997,-0.00027,0.00017,-0.00037,0.055,0.0300
2026,4,7,13:00:29.048,-1.796,109,-0.3,0.0,-0.4,-0.11,0.00,0.99,0.99997,-0.00027,0.00017,-0.00037,0.055,0.0200
2026,4,7,13:00:29.050,-1.794,111,-0.3,0.1,-0.4,-0.11,0.00,0.99,0.99997,-0.00027,0.00017,-0.00037,0.055,0.0200
2026,4,7,13:00:29.052,-1.792,113,-0.3,0.0,-0.4,-0.11,0.00,0.99,0.99997,-0.00027,0.00017,-0.00037,0.055,0.0220
2026,4,7,13:00:29.054,-1.790,115,-0.1,0.0,-0.3,-0.11,0.00,0.99,0.99997,-0.00030,0.00017,-0.00040,0.055,0.0280
2026,4,7,13:00:29.056,-1.788,117,-0.1,0.0,-0.4,-0.11,0.00,0.99,0.99997,-0.00030,0.00017,-0.00040,0.055,0.0300
2026,4,7,13:00:29.058,-1.786,119,-0.3,0.0,-0.4,-0.11,0.00,0.99,0.99997,-0.00030,0.00017,-0.00040,0.055,0.0310
2026,4,7,13:00:29.060,-1.784,121,-0.3,0.0,-0.4,-0.11,0.00,0.99,0.99997,-0.00030,0.00017,-0.00040,0.055,0.0360
2026,4,7,13:00:29.062,-1.782,123,-0.3,0.0,-0.4,-0.11,0.00,0.99,0.99997,-0.00030,0.00017,-0.00043,0.055,0.0280
2026,4,7,13:00:29.064,-1.780,125,-0.1,0.0,-0.3,-0.11,0.00,0.99,0.99997,-0.00030,0.00017,-0.00043,0.055,0.0310
2026,4,7,13:00:29.066,-1.778,127,-0.1,0.0,-0.4,-0.11,0.00,0.99,0.99997,-0.00030,0.00017,-0.00043,0.056,0.0300
2026,4,7,13:00:29.068,-1.776,129,-0.3,-0.1,-0.3,-0.11,0.00,0.99,0.99997,-0.00033,0.00017,-0.00043,0.055,0.0280
2026,4,7,13:00:29.070,-1.774,131,-0.3,-0.1,-0.3,-0.12,0.00,0.99,0.99997,-0.00033,0.00017,-0.00043,0.055,0.0330
2026,4,7,13:00:29.072,-1.772,133,-0.3,0.0,-0.3,-0.11,0.00,0.99,0.99997,-0.00033,0.00017,-0.00047,0.055,0.0250
2026,4,7,13:00:29.074,-1.770,135,-0.3,-0.1,-0.2,-0.12,0.00,0.99,0.99997,-0.00033,0.00017,-0.00047,0.055,0.0280
2026,4,7,13:00:29.076,-1.768,137,-0.3,-0.1,-0.2,-0.12,0.00,0.99,0.99997,-0.00033,0.00017,-0.00047,0.055,0.0280
2026,4,7,13:00:29.078,-1.766,139,-0.4,0.0,-0.3,-0.12,0.00,0.99,0.99997,-0.00033,0.00017,-0.00047,0.056,0.0360
2026,4,7,13:00:29.080,-1.764,141,-0.3,-0.1,-0.2,-0.12,0.00,0.99,0.99997,-0.00037,0.00017,-0.00047,0.056,0.0410
2026,4,7,13:00:29.082,-1.762,143,-0.4,-0.1,-0.2,-0.12,0.00,0.99,0.99997,-0.00037,0.00017,-0.00047,0.055,0.0200
2026,4,7,13:00:29.084,-1.760,145,-0.1,-0.1,-0.2,-0.11,0.00,0.99,0.99997,-0.00037,0.00017,-0.00047,0.055,0.0250
2026,4,7,13:00:29.086,-1.758,147,-0.3,-0.1,-0.2,-0.11,0.00,0.99,0.99997,-0.00037,0.00013,-0.00047,0.055,0.0380
2026,4,7,13:00:29.088,-1.756,149,-0.3,-0.1,0.0,-0.11,0.00,0.99,0.99997,-0.00037,0.00013,-0.00047,0.056,0.0280
2026,4,7,13:00:29.090,-1.754,151,-0.3,-0.1,-0.2,-0.11,0.00,0.99,0.99997,-0.00037,0.00013,-0.00050,0.055,0.0220
2026,4,7,13:00:29.092,-1.752,153,-0.3,-0.1,0.0,-0.11,0.00,0.99,0.99997,-0.00040,0.00013,-0.00050,0.055,0.0310
2026,4,7,13:00:29.094,-1.750,155,-0.3,-0.1,0.0,-0.12,0.00,0.99,0.99997,-0.00040,0.00013,-0.00050,0.055,0.0280
2026,4,7,13:00:29.096,-1.748,157,-0.3,-0.1,0.0,-0.11,0.00,0.99,0.99997,-0.00040,0.00013,-0.00050,0.055,0.0260
2026,4,7,13:00:29.098,-1.746,159,-0.3,-0.1,0.0,-0.11,0.00,0.99,0.99997,-0.00040,0.00013,-0.00050,0.055,0.0280
2026,4,7,13:00:29.100,-1.744,161,-0.3,-0.1,0.0,-0.11,0.00,0.99,0.99997,-0.00040,0.00013,-0.00050,0.055,0.0300
2026,4,7,13:00:29.102,-1.742,163,-0.4,0.0,0.0,-0.11,0.00,0.99,0.99997,-0.00043,0.00013,-0.00050,0.055,0.0330
2026,4,7,13:00:29.104,-1.740,165,-0.3,-0.1,-0.2,-0.11,0.00,0.99,0.99997,-0.00043,0.00013,-0.00050,0.055,0.0340
2026,4,7,13:00:29.106,-1.738,167,-0.3,-0.1,-0.2,-0.11,0.00,0.99,0.99997,-0.00043,0.00013,-0.00050,0.055,0.0380
2026,4,7,13:00:29.108,-1.736,169,-0.4,-0.1,-0.2,-0.11,0.00,0.99,0.99997,-0.00043,0.00013,-0.00050,0.055,0.0250
2026,4,7,13:00:29.110,-1.734,171,-0.3,-0.1,-0.2,-0.11,0.00,0.99,0.99997,-0.00043,0.00013,-0.00050,0.055,0.0330
2026,4,7,13:00:29.112,-1.732,173,-0.3,0.0,-0.2,-0.11,0.00,0.99,0.99997,-0.00047,0.00013,-0.00050,0.056,0.0340
2026,4,7,13:00:29.114,-1.730,175,-0.3,-0.1,-0.2,-0.11,0.00,0.99,0.99997,-0.00047,0.00013,-0.00050,0.056,0.0360
2026,4,7,13:00:29.116,-1.728,177,-0.3,0.0,-0.3,-0.11,0.00,0.99,0.99997,-0.00047,0.00013,-0.00053,0.056,0.0330
2026,4,7,13:00:29.118,-1.726,179,0.0,-0.1,-0.2,-0.11,0.00,0.99,0.99997,-0.00047,0.00013,-0.00053,0.055,0.0330
2026,4,7,13:00:29.120,-1.724,181,-0.3,0.0,-0.2,-0.11,0.00,0.99,0.99997,-0.00047,0.00013,-0.00053,0.055,0.0380
2026,4,7,13:00:29.122,-1.722,183,-0.1,-0.1,-0.2,-0.11,0.00,0.99,0.99997,-0.00047,0.00010,-0.00053,0.055,0.0250
2026,4,7,13:00:29.124,-1.720,185,-0.1,-0.1,-0.2,-0.11,0.00,0.99,0.99997,-0.00047,0.00010,-0.00053,0.055,0.0330
2026,4,7,13:00:29.126,-1.718,187,-0.1,-0.1,-0.3,-0.11,0.00,0.99,0.99997,-0.00047,0.00010,-0.00053,0.055,0.0330
2026,4,7,13:00:29.128,-1.716,189,-0.1,0.0,-0.3,-0.11,0.00,0.99,0.99997,-0.00047,0.00010,-0.00053,0.056,0.0260
2026,4,7,13:00:29.130,-1.714,191,-0.1,0.0,-0.3,-0.11,0.00,0.98,0.99997,-0.00050,0.00010,-0.00057,0.055,0.0390
2026,4,7,13:00:29.132,-1.712,193,-0.1,0.0,-0.3,-0.11,0.00,0.99,0.99997,-0.00050,0.00010,-0.00057,0.055,0.0310
2026,4,7,13:00:29.134,-1.710,195,-0.1,0.0,-0.3,-0.11,0.00,0.99,0.99997,-0.00050,0.00010,-0.00057,0.055,0.0300
2026,4,7,13:00:29.136,-1.708,197,-0.1,0.0,-0.3,-0.11,0.00,0.99,0.99997,-0.00050,0.00010,-0.00057,0.055,0.0310
2026,4,7,13:00:29.138,-1.706,199,-0.1,0.0,-0.3,-0.11,0.00,0.99,0.99997,-0.00050,0.00010,-0.00057,0.055,0.0390
2026,4,7,13:00:29.140,-1.704,201,-0.1,0.0,-0.2,-0.11,0.00,0.99,0.99997,-0.00050,0.00010,-0.00057,0.055,0.0360
2026,4,7,13:00:29.142,-1.702,203,0.0,0.0,-0.3,-0.11,0.00,0.99,0.99997,-0.00050,0.00010,-0.00060,0.055,0.0310
2026,4,7,13:00:29.144,-1.700,205,-0.1,-0.1,-0.2,-0.11,0.00,0.99,0.99997,-0.00050,0.00010,-0.00060,0.055,0.0360
2026,4,7,13:00:29.146,-1.698,207,-0.1,0.0,0.0,-0.11,0.00,0.99,0.99997,-0.00050,0.00010,-0.00060,0.055,0.0410
2026,4,7,13:00:29.148,-1.696,209,0.0,0.0,-0.2,-0.11,0.00,0.99,0.99997,-0.00050,0.00010,-0.00060,0.055,0.0300
2026,4,7,13:00:29.150,-1.694,211,-0.1,0.0,-0.3,-0.11,0.00,0.98,0.99997,-0.00050,0.00010,-0.00060,0.055,0.0260
2026,4,7,13:00:29.152,-1.692,213,-0.1,0.0,-0.2,-0.11,0.00,0.99,0.99997,-0.00050,0.00010,-0.00060,0.055,0.0310
2026,4,7,13:00:29.154,-1.690,215,-0.1,-0.1,-0.2,-0.11,0.00,0.99,0.99997,-0.00053,0.00010,-0.00060,0.055,0.0190
2026,4,7,13:00:29.156,-1.688,217,-0.1,0.0,0.0,-0.11,0.00,0.99,0.99997,-0.00053,0.00010,-0.00060,0.055,0.0200
2026,4,7,13:00:29.158,-1.686,219,0.0,-0.1,-0.2,-0.11,0.00,0.99,0.99997,-0.00053,0.00010,-0.00060,0.055,0.0260
2026,4,7,13:00:29.160,-1.684,221,0.0,-0.1,-0.2,-0.11,0.00,0.99,0.99997,-0.00053,0.00010,-0.00060,0.055,0.0300
2026,4,7,13:00:29.162,-1.682,223,0.0,-0.1,0.0,-0.11,0.00,0.99,0.99997,-0.00053,0.00010,-0.00060,0.055,0.0340
2026,4,7,13:00:29.164,-1.680,225,-0.1,-0.1,-0.2,-0.11,0.00,0.99,0.99997,-0.00053,0.00010,-0.00063,0.055,0.0280
2026,4,7,13:00:29.166,-1.678,227,-0.1,0.0,-0.2,-0.11,0.00,0.99,0.99997,-0.00053,0.00010,-0.00063,0.056,0.0310
2026,4,7,13:00:29.168,-1.676,229,-0.1,0.0,0.0,-0.11,0.00,0.99,0.99997,-0.00053,0.00010,-0.00063,0.055,0.0330
2026,4,7,13:00:29.170,-1.674,231,0.0,0.0,0.0,-0.11,0.00,0.99,0.99997,-0.00053,0.00010,-0.00063,0.056,0.0340
2026,4,7,13:00:29.172,-1.672,233,0.0,-0.1,0.0,-0.11,0.00,0.99,0.99997,-0.00053,0.00010,-0.00063,0.055,0.0280
2026,4,7,13:00:29.174,-1.670,235,0.0,0.0,0.0,-0.11,0.00,0.99,0.99997,-0.00053,0.00010,-0.00063,0.056,0.0330
2026,4,7,13:00:29.176,-1.668,237,0.0,0.0,0.0,-0.11,0.00,0.99,0.99997,-0.00053,0.00010,-0.00063,0.056,0.0280
2026,4,7,13:00:29.178,-1.666,239,0.0,-0.1,0.0,-0.11,0.00,0.99,0.99997,-0.00053,0.00010,-0.00063,0.056,0.0330
2026,4,7,13:00:29.180,-1.664,241,0.0,0.0,0.0,-0.11,0.00,0.99,0.99997,-0.00053,0.00010,-0.00063,0.055,0.0280
2026,4,7,13:00:29.182,-1.662,243,0.0,-0.1,0.0,-0.11,0.00,0.99,0.99997,-0.00053,0.00010,-0.00063,0.056,0.0340
2026,4,7,13:00:29.184,-1.660,245,0.0,0.0,0.0,-0.11,0.00,0.99,0.99997,-0.00053,0.00010,-0.00063,0.056,0.0300
2026,4,7,13:00:29.186,-1.658,247,0.0,0.0,0.0,-0.11,0.00,0.99,0.99997,-0.00053,0.00010,-0.00063,0.056,0.0330
2026,4,7,13:00:29.188,-1.656,249,0.0,0.0,0.0,-0.11,0.00,0.99,0.99997,-0.00053,0.00010,-0.00063,0.056,0.0410
2026,4,7,13:00:29.190,-1.654,1,0.0,0.0,0.0,-0.11,0.00,0.99,0.99997,-0.00053,0.00010,-0.00063,0.056,0.0410
2026,4,7,13:00:29.192,-1.652,3,0.0,-0.1,0.0,-0.11,0.00,0.99,0.99997,-0.00053,0.00010,-0.00063,0.055,0.0360
2026,4,7,13:00:29.194,-1.650,5,0.0,0.0,0.0,-0.11,0.00,0.99,0.99997,-0.00053,0.00010,-0.00063,0.056,0.0360
2026,4,7,13:00:29.196,-1.648,7,0.0,0.0,0.0,-0.11,0.00,0.99,0.99997,-0.00053,0.00010,-0.00063,0.056,0.0330
2026,4,7,13:00:29.198,-1.646,9,0.0,-0.1,0.0,-0.11,0.00,0.99,0.99997,-0.00053,0.00010,-0.00063,0.056,0.0340
2026,4,7,13:00:29.200,-1.644,11,0.0,0.0,0.0,-0.11,0.00,0.99,0.99997,-0.00053,0.00010,-0.00063,0.055,0.0250
2026,4,7,13:00:29.202,-1.642,13,0.0,0.0,0.0,-0.11,0.00,0.99,0.99997,-0.00053,0.00010,-0.00063,0.056,0.0260
2026,4,7,13:00:29.204,-1.640,15,0.0,0.0,0.0,-0.11,0.00,0.99,0.99997,-0.00053,0.00010,-0.00063,0.056,0.0330
2026,4,7,13:00:29.206,-1.638,17,0.0,0.0,0.0,-0.11,0.00,0.99,0.99997,-0.00053,0.00010,-0.00063,0.056,0.0260
2026,4,7,13:00:29.208,-1.636,19,0.0,0.0,0.0,-0.11,0.00,0.98,0.99997,-0.00053,0.00010,-0.00063,0.055,0.0300
2026,4,7,13:00:29.210,-1.634,21,0.0,0.1,0.0,-0.11,0.00,0.99,0.99997,-0.00053,0.00010,-0.00063,0.055,0.0310
2026,4,7,13:00:29.212,-1.632,23,0.0,0.0,0.0,-0.11,0.00,0.99,0.99997,-0.00053,0.00010,-0.00063,0.055,0.0280
2026,4,7,13:00:29.214,-1.630,25,0.0,0.1,0.0,-0.11,0.00,0.99,0.99997,-0.00053,0.00010,-0.00063,0.056,0.0390
2026,4,7,13:00:29.216,-1.628,27,0.0,0.0,0.0,-0.11,0.00,0.99,0.99997,-0.00053,0.00010,-0.00063,0.056,0.0300
2026,4,7,13:00:29.218,-1.626,29,0.0,0.1,0.0,-0.11,0.00,0.99,0.99997,-0.00053,0.00010,-0.00063,0.055,0.0330
2026,4,7,13:00:29.220,-1.624,31,0.0,0.1,0.0,-0.11,0.00,0.99,0.99997,-0.00053,0.00010,-0.00063,0.055,0.0280
2026,4,7,13:00:29.222,-1.622,33,0.0,0.1,0.0,-0.11,0.00,0.99,0.99997,-0.00053,0.00010,-0.00063,0.055,0.0280
2026,4,7,13:00:29.224,-1.620,35,0.0,-0.1,0.0,-0.11,0.00,0.99,0.99997,-0.00053,0.00010,-0.00063,0.055,0.0360
2026,4,7,13:00:29.226,-1.618,37,0.2,-0.1,0.0,-0.11,0.00,0.99,0.99997,-0.00053,0.00010,-0.00063,0.055,0.0250
2026,4,7,13:00:29.228,-1.616,39,0.2,0.0,0.0,-0.11,0.00,0.99,0.99997,-0.00053,0.00010,-0.00063,0.055,0.0360
2026,4,7,13:00:29.230,-1.614,41,0.0,0.1,0.0,-0.11,0.00,0.99,0.99997,-0.00050,0.00010,-0.00063,0.055,0.0330
2026,4,7,13:00:29.232,-1.612,43,0.0,0.1,0.2,-0.11,0.00,0.99,0.99997,-0.00050,0.00010,-0.00063,0.056,0.0340
2026,4,7,13:00:29.234,-1.610,45,0.0,0.0,0.2,-0.11,0.00,0.99,0.99997,-0.00050,0.00010,-0.00063,0.055,0.0380
2026,4,7,13:00:29.236,-1.608,47,0.2,0.0,0.0,-0.11,0.00,0.99,0.99997,-0.00050,0.00010,-0.00063,0.055,0.0300
2026,4,7,13:00:29.238,-1.606,49,0.2,0.1,0.2,-0.11,0.00,0.99,0.99997,-0.00050,0.00010,-0.00063,0.055,0.0230
2026,4,7,13:00:29.240,-1.604,51,0.0,0.1,0.2,-0.11,0.00,0.99,0.99997,-0.00050,0.00010,-0.00063,0.055,0.0330
2026,4,7,13:00:29.242,-1.602,53,0.0,0.0,0.2,-0.11,0.00,0.99,0.99997,-0.00050,0.00010,-0.00063,0.055,0.0440
2026,4,7,13:00:29.244,-1.600,55,0.2,0.0,0.2,-0.11,0.00,0.99,0.99997,-0.00050,0.00010,-0.00063,0.056,0.0280
2026,4,7,13:00:29.246,-1.598,57,0.2,0.0,0.2,-0.11,0.00,0.99,0.99997,-0.00050,0.00010,-0.00060,0.055,0.0280
2026,4,7,13:00:29.248,-1.596,59,0.2,0.0,0.2,-0.11,0.00,0.99,0.99997,-0.00050,0.00010,-0.00060,0.055,0.0330
2026,4,7,13:00:29.250,-1.594,61,0.0,0.1,0.3,-0.11,0.00,0.99,0.99997,-0.00050,0.00010,-0.00060,0.056,0.0310
2026,4,7,13:00:29.252,-1.592,63,0.0,0.0,0.3,-0.11,0.00,0.99,0.99997,-0.00050,0.00010,-0.00060,0.056,0.0360
2026,4,7,13:00:29.254,-1.590,65,0.2,0.0,0.2,-0.11,0.00,0.99,0.99997,-0.00047,0.00010,-0.00060,0.056,0.0310
2026,4,7,13:00:29.256,-1.588,67,0.2,0.1,0.3,-0.11,0.00,0.99,0.99997,-0.00047,0.00010,-0.00060,0.056,0.0380
2026,4,7,13:00:29.258,-1.586,69,0.0,0.1,0.2,-0.11,0.00,0.99,0.99997,-0.00047,0.00010,-0.00060,0.055,0.0380
2026,4,7,13:00:29.260,-1.584,71,0.0,0.0,0.2,-0.11,0.00,0.99,0.99997,-0.00047,0.00010,-0.00057,0.055,0.0360
2026,4,7,13:00:29.262,-1.582,73,0.2,0.0,0.0,-0.11,0.00,0.99,0.99997,-0.00047,0.00010,-0.00057,0.055,0.0250
2026,4,7,13:00:29.264,-1.580,75,0.2,0.1,0.2,-0.11,0.00,0.99,0.99997,-0.00047,0.00010,-0.00057,0.056,0.0280
2026,4,7,13:00:29.266,-1.578,77,0.2,0.1,0.0,-0.11,0.00,0.99,0.99997,-0.00047,0.00010,-0.00057,0.056,0.0360
2026,4,7,13:00:29.268,-1.576,79,0.0,0.0,0.2,-0.11,0.00,0.99,0.99997,-0.00047,0.00010,-0.00057,0.055,0.0310
2026,4,7,13:00:29.270,-1.574,81,0.2,0.1,0.2,-0.11,0.00,0.99,0.99997,-0.00047,0.00013,-0.00057,0.055,0.0380
2026,4,7,13:00:29.272,-1.572,83,0.2,0.0,0.2,-0.11,0.00,0.99,0.99997,-0.00047,0.00013,-0.00057,0.055,0.0280
2026,4,7,13:00:29.274,-1.570,85,0.0,0.0,0.2,-0.12,0.00,0.99,0.99997,-0.00047,0.00013,-0.00057,0.055,0.0310
2026,4,7,13:00:29.276,-1.568,87,0.2,0.0,0.0,-0.12,0.00,0.99,0.99997,-0.00043,0.00013,-0.00057,0.056,0.0260
2026,4,7,13:00:29.278,-1.566,89,0.2,0.0,0.2,-0.12,0.00,0.99,0.99997,-0.00043,0.00013,-0.00057,0.056,0.0300
2026,4,7,13:00:29.280,-1.564,91,0.0,0.0,0.0,-0.12,0.00,0.99,0.99997,-0.00043,0.00013,-0.00057,0.055,0.0260
2026,4,7,13:00:29.282,-1.562,93,0.2,0.0,0.2,-0.12,0.00,0.99,0.99997,-0.00043,0.00013,-0.00057,0.056,0.0250
2026,4,7,13:00:29.284,-1.560,95,0.2,0.0,0.2,-0.12,0.00,0.99,0.99997,-0.00043,0.00013,-0.00053,0.055,0.0300
2026,4,7,13:00:29.286,-1.558,97,0.2,0.1,0.0,-0.12,0.00,0.99,0.99997,-0.00043,0.00013,-0.00053,0.055,0.0300
2026,4,7,13:00:29.288,-1.556,99,0.2,0.0,0.2,-0.12,0.00,0.99,0.99997,-0.00043,0.00013,-0.00053,0.055,0.0330
2026,4,7,13:00:29.290,-1.554,101,0.2,0.0,0.2,-0.12,0.00,0.99,0.99997,-0.00043,0.00013,-0.00053,0.056,0.0340
2026,4,7,13:00:29.292,-1.552,103,0.0,-0.1,0.3,-0.12,0.00,0.99,0.99997,-0.00043,0.00013,-0.00053,0.056,0.0330
2026,4,7,13:00:29.294,-1.550,105,0.2,0.1,0.0,-0.12,0.00,0.98,0.99997,-0.00040,0.00013,-0.00053,0.056,0.0280
2026,4,7,13:00:29.296,-1.548,107,0.2,0.1,0.2,-0.12,0.00,0.99,0.99997,-0.00040,0.00013,-0.00053,0.056,0.0330
2026,4,7,13:00:29.298,-1.546,109,0.2,0.1,0.2,-0.11,0.00,0.99,0.99997,-0.00040,0.00013,-0.00053,0.055,0.0330
2026,4,7,13:00:29.300,-1.544,111,0.2,0.0,0.2,-0.11,0.00,0.99,0.99997,-0.00040,0.00013,-0.00053,0.055,0.0260
2026,4,7,13:00:29.302,-1.542,113,0.2,0.0,0.2,-0.11,0.00,0.99,0.99997,-0.00040,0.00013,-0.00050,0.056,0.0380
2026,4,7,13:00:29.304,-1.540,115,0.0,0.1,0.2,-0.11,0.00,0.99,0.99997,-0.00040,0.00013,-0.00050,0.055,0.0380
2026,4,7,13:00:29.306,-1.538,117,0.2,0.0,0.0,-0.11,0.00,0.99,0.99997,-0.00040,0.00013,-0.00050,0.055,0.0250
2026,4,7,13:00:29.308,-1.536,119,0.3,0.1,0.2,-0.11,0.00,0.99,1.00000,0.00000,0.00000,0.00000,0.055,0.0310
2026,4,7,13:00:29.310,-1.534,121,0.2,0.0,0.2,-0.11,0.00,0.99,1.00000,0.00000,0.00000,0.00000,0.055,0.0340
2026,4,7,13:00:29.312,-1.532,123,0.2,0.1,0.2,-0.11,0.00,0.99,1.00000,0.00000,0.00000,0.00000,0.055,0.0260
2026,4,7,13:00:29.314,-1.530,125,0.2,0.1,0.3,-0.11,0.00,0.99,1.00000,0.00000,0.00000,0.00000,0.055,0.0250
2026,4,7,13:00:29.316,-1.528,127,0.3,0.1,0.0,-0.12,0.00,0.99,1.00000,0.00000,0.00000,0.00000,0.056,0.0330
2026,4,7,13:00:29.318,-1.526,129,0.3,0.1,0.0,-0.11,0.00,0.99,1.00000,0.00000,0.00000,0.00000,0.056,0.0380
2026,4,7,13:00:29.320,-1.524,131,0.2,0.1,0.2,-0.11,0.00,0.99,1.00000,0.00003,0.00000,0.00000,0.055,0.0340
2026,4,7,13:00:29.322,-1.522,133,0.2,0.1,0.0,-0.11,0.00,0.99,1.00000,0.00003,0.00000,0.00000,0.055,0.0300
2026,4,7,13:00:29.324,-1.520,135,0.2,0.1,0.0,-0.11,0.00,0.99,1.00000,0.00003,0.00000,0.00000,0.055,0.0260
2026,4,7,13:00:29.326,-1.518,137,0.2,0.1,0.2,-0.11,0.00,0.99,1.00000,0.00003,0.00000,0.00000,0.055,0.0410
2026,4,7,13:00:29.328,-1.516,139,0.2,0.0,0.0,-0.12,0.00,0.99,1.00000,0.00003,0.00000,0.00000,0.055,0.0280
2026,4,7,13:00:29.330,-1.514,141,0.3,0.0,0.2,-0.12,0.01,0.99,1.00000,0.00003,0.00000,0.00003,0.055,0.0300
2026,4,7,13:00:29.332,-1.512,143,0.3,0.1,0.2,-0.12,0.01,0.99,1.00000,0.00003,0.00000,0.00003,0.055,0.0310
2026,4,7,13:00:29.334,-1.510,145,0.2,0.0,0.2,-0.12,0.01,0.99,1.00000,0.00007,0.00000,0.00003,0.055,0.0330
2026,4,7,13:00:29.336,-1.508,147,0.2,0.0,0.2,-0.12,0.01,0.99,1.00000,0.00007,0.00000,0.00003,0.055,0.0310
2026,4,7,13:00:29.338,-1.506,149,0.2,0.1,0.2,-0.12,0.00,0.99,1.00000,0.00007,0.00000,0.00003,0.056,0.0380
2026,4,7,13:00:29.340,-1.504,151,0.2,0.1,0.2,-0.12,0.00,0.99,1.00000,0.00007,0.00000,0.00003,0.055,0.0330
2026,4,7,13:00:29.342,-1.502,153,0.2,0.0,0.3,-0.12,0.01,0.99,1.00000,0.00007,0.00000,0.00003,0.055,0.0340
2026,4,7,13:00:29.344,-1.500,155,0.3,0.0,0.2,-0.12,0.01,0.99,1.00000,0.00007,0.00000,0.00003,0.055,0.0260
2026,4,7,13:00:29.346,-1.498,157,0.2,0.0,0.2,-0.12,0.01,0.99,1.00000,0.00007,0.00000,0.00007,0.056,0.0330
2026,4,7,13:00:29.348,-1.496,159,0.2,0.0,0.2,-0.12,0.01,0.99,1.00000,0.00007,0.00000,0.00007,0.056,0.0380
2026,4,7,13:00:29.350,-1.494,161,0.2,0.0,0.3,-0.12,0.01,0.99,1.00000,0.00010,0.00000,0.00007,0.056,0.0380
2026,4,7,13:00:29.352,-1.492,163,0.0,0.0,0.3,-0.11,0.01,0.99,1.00000,0.00010,0.00000,0.00007,0.055,0.0340
2026,4,7,13:00:29.354,-1.490,165,0.2,0.0,0.3,-0.11,0.01,0.99,1.00000,0.00010,0.00000,0.00007,0.055,0.0330
2026,4,7,13:00:29.356,-1.488,167,0.2,-0.1,0.3,-0.11,0.01,0.99,1.00000,0.00010,0.00000,0.00007,0.055,0.0380
2026,4,7,13:00:29.358,-1.486,169,0.2,0.0,0.4,-0.11,0.01,0.99,1.00000,0.00010,0.00000,0.00010,0.055,0.0390
2026,4,7,13:00:29.360,-1.484,171,0.2,0.0,0.3,-0.11,0.01,0.99,1.00000,0.00010,0.00000,0.00010,0.055,0.0340
2026,4,7,13:00:29.362,-1.482,173,0.0,0.0,0.3,-0.11,0.00,0.99,1.00000,0.00010,0.00000,0.00010,0.055,0.0310
2026,4,7,13:00:29.364,-1.480,175,0.2,0.0,0.3,-0.12,0.01,0.99,1.00000,0.00010,0.00000,0.00010,0.055,0.0280
2026,4,7,13:00:29.366,-1.478,177,0.2,0.0,0.3,-0.11,0.00,0.99,1.00000,0.00010,0.00000,0.00010,0.055,0.0280
2026,4,7,13:00:29.368,-1.476,179,0.2,0.0,0.3,-0.11,0.00,0.99,1.00000,0.00013,0.00000,0.00013,0.055,0.0360
2026,4,7,13:00:29.370,-1.474,181,0.0,0.0,0.3,-0.11,0.00,0.99,1.00000,0.00013,0.00000,0.00013,0.055,0.0260
2026,4,7,13:00:29.372,-1.472,183,0.0,0.0,0.2,-0.11,0.01,0.99,1.00000,0.00013,0.00000,0.00013,0.055,0.0310
2026,4,7,13:00:29.374,-1.470,185,0.0,0.0,0.0,-0.11,0.01,0.99,1.00000,0.00013,0.00000,0.00013,0.056,0.0330
2026,4,7,13:00:29.376,-1.468,187,0.2,0.0,0.2,-0.11,0.01,0.99,1.00000,0.00013,0.00000,0.00013,0.056,0.0360
2026,4,7,13:00:29.378,-1.466,189,0.0,0.0,0.2,-0.11,0.01,0.99,1.00000,0.00013,0.00000,0.00013,0.055,0.0310
2026,4,7,13:00:29.380,-1.464,191,0.2,0.1,0.2,-0.11,0.01,0.99,1.00000,0.00013,0.00000,0.00013,0.055,0.0310
2026,4,7,13:00:29.382,-1.462,193,0.2,0.1,0.0,-0.12,0.01,0.99,1.00000,0.00013,0.00000,0.00013,0.056,0.0340
2026,4,7,13:00:29.384,-1.460,195,0.2,0.0,0.0,-0.13,0.01,0.99,1.00000,0.00013,0.00000,0.00013,0.055,0.0310
2026,4,7,13:00:29.386,-1.458,197,0.2,0.0,0.0,-0.13,0.02,0.98,1.00000,0.00013,0.00000,0.00013,0.055,0.0300
2026,4,7,13:00:29.388,-1.456,199,0.0,0.0,0.0,-0.13,0.01,0.99,1.00000,0.00013,0.00000,0.00013,0.055,0.0280
2026,4,7,13:00:29.390,-1.454,201,0.2,0.1,0.2,-0.12,0.01,0.99,1.00000,0.00017,0.00003,0.00017,0.055,0.0300
2026,4,7,13:00:29.392,-1.452,203,0.2,0.0,0.0,-0.12,0.00,0.99,1.00000,0.00017,0.00003,0.00017,0.055,0.0300
2026,4,7,13:00:29.394,-1.450,205,0.0,0.0,0.0,-0.12,0.00,0.98,1.00000,0.00017,0.00003,0.00017,0.055,0.0360
2026,4,7,13:00:29.396,-1.448,207,0.2,0.0,0.0,-0.12,0.00,0.99,1.00000,0.00017,0.00003,0.00017,0.055,0.0310
2026,4,7,13:00:29.398,-1.446,209,0.0,0.0,0.0,-0.12,0.01,0.99,1.00000,0.00017,0.00003,0.00017,0.056,0.0380
2026,4,7,13:00:29.400,-1.444,211,0.0,-0.1,0.0,-0.13,0.01,0.98,1.00000,0.00017,0.00000,0.00017,0.055,0.0380
2026,4,7,13:00:29.402,-1.442,213,0.0,0.0,0.0,-0.13,0.01,0.99,1.00000,0.00017,0.00000,0.00017,0.056,0.0380
2026,4,7,13:00:29.404,-1.440,215,0.0,0.0,0.0,-0.13,0.01,0.98,1.00000,0.00017,0.00000,0.00017,0.055,0.0300
2026,4,7,13:00:29.406,-1.438,217,0.2,-0.1,0.0,-0.12,0.01,0.99,1.00000,0.00017,0.00000,0.00017,0.055,0.0330
2026,4,7,13:00:29.408,-1.436,219,0.2,-0.1,0.0,-0.12,0.01,0.99,1.00000,0.00017,0.00000,0.00017,0.056,0.0300
2026,4,7,13:00:29.410,-1.434,221,0.0,-0.1,0.0,-0.11,0.01,0.98,1.00000,0.00017,0.00000,0.00017,0.055,0.0390
2026,4,7,13:00:29.412,-1.432,223,0.2,-0.1,0.0,-0.12,0.01,0.99,1.00000,0.00017,0.00000,0.00017,0.055,0.0360
2026,4,7,13:00:29.414,-1.430,225,0.0,-0.1,0.0,-0.11,0.00,0.99,1.00000,0.00017,0.00000,0.00017,0.055,0.0390
2026,4,7,13:00:29.416,-1.428,227,0.0,-0.1,0.0,-0.11,0.01,0.99,1.00000,0.00020,0.00000,0.00017,0.055,0.0300
2026,4,7,13:00:29.418,-1.426,229,0.0,-0.1,0.0,-0.11,0.01,0.99,1.00000,0.00020,0.00000,0.00017,0.055,0.0310
2026,4,7,13:00:29.420,-1.424,231,0.0,-0.1,0.0,-0.11,0.01,0.99,1.00000,0.00020,0.00000,0.00017,0.056,0.0360
2026,4,7,13:00:29.422,-1.422,233,0.0,-0.1,0.0,-0.11,0.01,0.99,1.00000,0.00020,0.00000,0.00017,0.055,0.0360
2026,4,7,13:00:29.424,-1.420,235,0.0,0.0,0.2,-0.11,0.01,0.99,1.00000,0.00020,0.00000,0.00017,0.055,0.0390
2026,4,7,13:00:29.426,-1.418,237,0.0,-0.1,0.2,-0.11,0.01,0.99,1.00000,0.00020,0.00000,0.00017,0.055,0.0330
2026,4,7,13:00:29.428,-1.416,239,0.0,0.0,0.2,-0.11,0.01,0.99,1.00000,0.00020,0.00000,0.00017,0.055,0.0280
2026,4,7,13:00:29.430,-1.414,241,0.0,0.0,0.2,-0.11,0.01,0.99,1.00000,0.00020,0.00000,0.00020,0.055,0.0260
2026,4,7,13:00:29.432,-1.412,243,0.0,0.0,0.2,-0.11,0.01,0.99,1.00000,0.00020,0.00000,0.00020,0.055,0.0250
2026,4,7,13:00:29.434,-1.410,245,0.0,-0.1,0.2,-0.11,0.01,0.99,1.00000,0.00020,0.00000,0.00020,0.055,0.0330
2026,4,7,13:00:29.436,-1.408,247,0.0,-0.1,0.3,-0.11,0.01,0.99,1.00000,0.00020,0.00000,0.00020,0.055,0.0300
2026,4,7,13:00:29.438,-1.406,249,0.0,0.0,0.2,-0.11,0.01,0.99,1.00000,0.00020,0.00000,0.00020,0.056,0.0300
2026,4,7,13:00:29.440,-1.404,1,0.0,0.0,0.2,-0.11,0.01,0.99,1.00000,0.00020,0.00000,0.00020,0.055,0.0260
2026,4,7,13:00:29.442,-1.402,3,0.0,0.0,0.2,-0.11,0.01,0.99,1.00000,0.00020,0.00000,0.00020,0.056,0.0340
2026,4,7,13:00:29.444,-1.400,5,0.0,0.0,0.2,-0.11,0.01,0.99,1.00000,0.00020,0.00000,0.00020,0.055,0.0340
2026,4,7,13:00:29.446,-1.398,7,0.0,0.0,0.3,-0.11,0.01,0.99,1.00000,0.00020,0.00000,0.00023,0.055,0.0260
2026,4,7,13:00:29.448,-1.396,9,0.0,0.0,0.2,-0.11,0.01,0.99,1.00000,0.00020,0.00000,0.00023,0.055,0.0260
2026,4,7,13:00:29.450,-1.394,11,0.0,0.0,0.2,-0.11,0.01,0.99,1.00000,0.00020,0.00000,0.00023,0.056,0.0340
2026,4,7,13:00:29.452,-1.392,13,0.0,0.0,0.2,-0.11,0.01,0.99,1.00000,0.00020,0.00000,0.00023,0.056,0.0390
2026,4,7,13:00:29.454,-1.390,15,0.0,0.0,0.2,-0.12,0.02,0.99,1.00000,0.00020,0.00000,0.00023,0.055,0.0330
2026,4,7,13:00:29.456,-1.388,17,0.0,0.0,0.2,-0.11,0.01,0.99,1.00000,0.00020,0.00000,0.00023,0.056,0.0360
2026,4,7,13:00:29.458,-1.386,19,0.0,0.0,0.2,-0.11,0.01,0.98,1.00000,0.00020,0.00000,0.00023,0.056,0.0330
2026,4,7,13:00:29.460,-1.384,21,0.0,-0.1,0.2,-0.11,0.00,0.99,1.00000,0.00020,0.00000,0.00023,0.055,0.0360
2026,4,7,13:00:29.462,-1.382,23,0.0,-0.1,0.2,-0.11,0.00,0.99,1.00000,0.00020,0.00000,0.00027,0.055,0.0330
2026,4,7,13:00:29.464,-1.380,25,0.0,-0.1,0.0,-0.12,0.01,0.99,1.00000,0.00020,0.00000,0.00027,0.056,0.0340
2026,4,7,13:00:29.466,-1.378,27,0.0,-0.2,0.0,-0.12,0.01,0.99,1.00000,0.00020,0.00000,0.00027,0.055,0.0300
2026,4,7,13:00:29.468,-1.376,29,0.0,-0.1,0.0,-0.12,0.01,0.99,1.00000,0.00020,0.00000,0.00027,0.056,0.0360
2026,4,7,13:00:29.470,-1.374,31,0.0,-0.1,0.0,-0.13,0.02,0.98,1.00000,0.00020,0.00000,0.00027,0.056,0.0390
2026,4,7,13:00:29.472,-1.372,33,-0.1,-0.1,0.0,-0.13,0.02,0.98,1.00000,0.00020,0.00000,0.00027,0.055,0.0380
2026,4,7,13:00:29.474,-1.370,35,0.0,-0.1,0.0,-0.12,0.02,0.99,1.00000,0.00020,0.00000,0.00027,0.055,0.0300
2026,4,7,13:00:29.476,-1.368,37,0.0,-0.1,0.0,-0.11,0.01,0.99,1.00000,0.00020,0.00000,0.00027,0.056,0.0410
2026,4,7,13:00:29.478,-1.366,39,0.0,-0.1,0.0,-0.11,0.00,0.99,1.00000,0.00020,0.00000,0.00027,0.055,0.0360
2026,4,7,13:00:29.480,-1.364,41,0.0,-0.1,0.0,-0.11,0.01,0.99,1.00000,0.00020,0.00000,0.00027,0.055,0.0310
2026,4,7,13:00:29.482,-1.362,43,0.0,-0.2,0.0,-0.11,0.01,0.99,1.00000,0.00020,0.00000,0.00027,0.055,0.0330
2026,4,7,13:00:29.484,-1.360,45,-0.1,-0.1,-0.2,-0.12,0.01,0.99,1.00000,0.00020,0.00000,0.00027,0.055,0.0340
2026,4,7,13:00:29.486,-1.358,47,0.0,-0.1,-0.2,-0.11,0.02,0.99,1.00000,0.00020,-0.00003,0.00027,0.055,0.0390
2026,4,7,13:00:29.488,-1.356,49,0.0,0.0,-0.2,-0.11,0.01,0.99,1.00000,0.00020,-0.00003,0.00023,0.056,0.0310
2026,4,7,13:00:29.490,-1.354,51,-0.1,-0.1,-0.2,-0.11,0.01,0.99,1.00000,0.00020,-0.00003,0.00023,0.056,0.0310
2026,4,7,13:00:29.492,-1.352,53,-0.1,-0.1,0.0,-0.10,0.01,0.99,1.00000,0.00020,-0.00003,0.00023,0.055,0.0380
2026,4,7,13:00:29.494,-1.350,55,0.0,-0.1,-0.2,-0.10,0.01,0.99,1.00000,0.00020,-0.00003,0.00023,0.055,0.0360
2026,4,7,13:00:29.496,-1.348,57,0.0,-0.1,0.0,-0.11,0.01,0.98,1.00000,0.00020,-0.00003,0.00023,0.056,0.0360
2026,4,7,13:00:29.498,-1.346,59,0.0,0.0,-0.2,-0.11,0.01,0.99,1.00000,0.00020,-0.00003,0.00023,0.056,0.0280
2026,4,7,13:00:29.500,-1.344,61,0.0,0.1,-0.2,-0.11,0.01,0.98,1.00000,0.00020,-0.00003,0.00023,0.055,0.0300
2026,4,7,13:00:29.502,-1.342,63,0.0,0.0,-0.3,-0.11,0.01,0.99,1.00000,0.00020,-0.00003,0.00023,0.055,0.0280
2026,4,7,13:00:29.504,-1.340,65,0.0,-0.1,-0.2,-0.11,0.01,0.99,1.00000,0.00020,-0.00003,0.00023,0.055,0.0280
2026,4,7,13:00:29.506,-1.338,67,0.0,0.0,-0.2,-0.11,0.02,0.99,1.00000,0.00020,-0.00003,0.00023,0.055,0.0300
2026,4,7,13:00:29.508,-1.336,69,0.0,0.0,-0.2,-0.11,0.01,0.99,1.00000,0.00020,-0.00003,0.00020,0.055,0.0330
2026,4,7,13:00:29.510,-1.334,71,0.0,0.0,-0.2,-0.11,0.01,0.99,1.00000,0.00020,-0.00003,0.00020,0.055,0.0300
2026,4,7,13:00:29.512,-1.332,73,0.0,0.0,0.0,-0.11,0.01,0.99,1.00000,0.00020,-0.00003,0.00020,0.055,0.0340
2026,4,7,13:00:29.514,-1.330,75,0.0,0.0,-0.2,-0.11,0.01,0.99,1.00000,0.00020,-0.00003,0.00020,0.055,0.0330
2026,4,7,13:00:29.516,-1.328,77,0.0,0.0,-0.2,-0.11,0.01,0.99,1.00000,0.00020,-0.00003,0.00020,0.056,0.0390
2026,4,7,13:00:29.518,-1.326,79,-0.1,0.0,-0.3,-0.12,0.01,0.99,1.00000,0.00020,-0.00003,0.00020,0.056,0.0380
2026,4,7,13:00:29.520,-1.324,81,0.0,0.0,-0.3,-0.12,0.01,0.99,1.00000,0.00020,-0.00003,0.00020,0.055,0.0390
2026,4,7,13:00:29.522,-1.322,83,-0.1,-0.1,-0.2,-0.12,0.01,0.99,1.00000,0.00017,-0.00003,0.00020,0.055,0.0260
2026,4,7,13:00:29.524,-1.320,85,0.0,-0.1,-0.3,-0.12,0.01,0.99,1.00000,0.00017,-0.00003,0.00017,0.055,0.0300
2026,4,7,13:00:29.526,-1.318,87,0.0,0.0,-0.2,-0.11,0.01,0.99,1.00000,0.00017,-0.00003,0.00017,0.055,0.0340
2026,4,7,13:00:29.528,-1.316,89,-0.1,0.0,-0.2,-0.11,0.01,0.99,1.00000,0.00017,-0.00003,0.00017,0.055,0.0310
2026,4,7,13:00:29.530,-1.314,91,0.0,0.0,0.0,-0.11,0.01,0.99,1.00000,0.00017,-0.00003,0.00017,0.055,0.0360
2026,4,7,13:00:29.532,-1.312,93,-0.1,-0.1,-0.2,-0.11,0.01,0.99,1.00000,0.00017,-0.00003,0.00017,0.055,0.0340
2026,4,7,13:00:29.534,-1.310,95,0.0,0.0,-0.2,-0.11,0.01,0.99,1.00000,0.00017,-0.00003,0.00017,0.056,0.0310
2026,4,7,13:00:29.536,-1.308,97,0.0,-0.1,0.0,-0.11,0.01,0.99,1.00000,0.00017,-0.00003,0.00017,0.055,0.0330
2026,4,7,13:00:29.538,-1.306,99,-0.1,-0.1,0.0,-0.11,0.01,0.99,1.00000,0.00017,-0.00003,0.00017,0.056,0.0360
2026,4,7,13:00:29.540,-1.304,101,-0.1,-0.1,-0.2,-0.11,0.01,0.99,1.00000,0.00017,-0.00003,0.00017,0.055,0.0410
2026,4,7,13:00:29.542,-1.302,103,0.0,-0.1,-0.2,-0.10,0.01,0.99,1.00000,0.00017,-0.00003,0.00017,0.055,0.0360
2026,4,7,13:00:29.544,-1.300,105,-0.1,0.0,0.0,-0.11,0.00,0.99,1.00000,0.00017,-0.00003,0.00017,0.056,0.0260
2026,4,7,13:00:29.546,-1.298,107,-0.3,-0.1,0.0,-0.10,0.01,0.99,1.00000,0.00017,-0.00003,0.00017,0.056,0.0310
2026,4,7,13:00:29.548,-1.296,109,-0.1,0.0,0.0,-0.10,0.01,0.99,1.00000,0.00017,-0.00003,0.00017,0.055,0.0340
2026,4,7,13:00:29.550,-1.294,111,-0.1,0.0,0.0,-0.10,0.00,0.99,1.00000,0.00013,-0.00003,0.00017,0.055,0.0230
2026,4,7,13:00:29.552,-1.292,113,-0.1,0.0,0.0,-0.10,0.01,0.99,1.00000,0.00013,-0.00003,0.00017,0.055,0.0280
2026,4,7,13:00:29.554,-1.290,115,0.0,0.0,0.0,-0.10,0.01,0.99,1.00000,0.00013,-0.00003,0.00017,0.055,0.0300
2026,4,7,13:00:29.556,-1.288,117,-0.1,-0.1,0.0,-0.11,0.00,0.99,1.00000,0.00013,-0.00003,0.00017,0.055,0.0380
2026,4,7,13:00:29.558,-1.286,119,0.0,0.0,0.0,-0.10,0.00,0.99,1.00000,0.00013,-0.00003,0.00017,0.055,0.0310
2026,4,7,13:00:29.560,-1.284,121,-0.1,0.0,0.0,-0.11,0.00,0.99,1.00000,0.00013,-0.00003,0.00017,0.056,0.0330
2026,4,7,13:00:29.562,-1.282,123,-0.1,0.1,0.0,-0.11,0.00,0.98,1.00000,0.00013,-0.00003,0.00017,0.055,0.0340
2026,4,7,13:00:29.564,-1.280,125,0.0,0.1,0.0,-0.11,0.01,0.99,1.00000,0.00013,-0.00003,0.00017,0.055,0.0380
2026,4,7,13:00:29.566,-1.278,127,-0.1,0.1,0.0,-0.11,0.01,0.99,1.00000,0.00013,-0.00003,0.00017,0.056,0.0280
2026,4,7,13:00:29.568,-1.276,129,0.0,0.1,0.0,-0.13,0.03,0.99,1.00000,0.00013,-0.00003,0.00017,0.055,0.0310
2026,4,7,13:00:29.570,-1.274,131,-0.1,0.1,0.0,-0.12,0.02,0.99,1.00000,0.00013,-0.00003,0.00017,0.055,0.0300
2026,4,7,13:00:29.572,-1.272,133,-0.1,0.1,0.0,-0.12,0.01,0.99,1.00000,0.00013,-0.00003,0.00017,0.056,0.0310
2026,4,7,13:00:29.574,-1.270,135,-0.1,0.0,0.0,-0.11,0.00,0.99,1.00000,0.00013,-0.00003,0.00017,0.055,0.0300
2026,4,7,13:00:29.576,-1.268,137,-0.1,0.0,0.0,-0.10,0.00,0.99,1.00000,0.00010,-0.00003,0.00017,0.055,0.0310
2026,4,7,13:00:29.578,-1.266,139,-0.1,-0.1,-0.2,-0.10,0.00,0.99,1.00000,0.00010,-0.00003,0.00017,0.055,0.0300
2026,4,7,13:00:29.580,-1.264,141,-0.1,0.0,0.0,-0.11,0.01,0.99,1.00000,0.00010,-0.00003,0.00017,0.056,0.0330
2026,4,7,13:00:29.582,-1.262,143,-0.3,0.0,0.0,-0.12,0.01,0.99,1.00000,0.00010,-0.00003,0.00017,0.056,0.0250
2026,4,7,13:00:29.584,-1.260,145,-0.1,0.0,-0.2,-0.13,0.02,0.99,1.00000,0.00010,-0.00003,0.00017,0.055,0.0340
2026,4,7,13:00:29.586,-1.258,147,-0.3,0.1,0.0,-0.13,0.02,0.98,1.00000,0.00010,-0.00003,0.00017,0.055,0.0310
2026,4,7,13:00:29.588,-1.256,149,-0.1,-0.1,0.0,-0.12,0.01,0.99,1.00000,0.00010,-0.00003,0.00017,0.055,0.0330
2026,4,7,13:00:29.590,-1.254,151,-0.1,-0.1,0.0,-0.12,0.01,0.99,1.00000,0.00010,-0.00003,0.00017,0.055,0.0360
2026,4,7,13:00:29.592,-1.252,153,-0.1,0.0,0.0,-0.11,0.00,0.99,1.00000,0.00007,-0.00003,0.00017,0.055,0.0360
2026,4,7,13:00:29.594,-1.250,155,-0.1,0.0,-0.2,-0.11,0.00,0.99,1.00000,0.00007,-0.00003,0.00013,0.055,0.0300
2026,4,7,13:00:29.596,-1.248,157,-0.1,0.1,-0.3,-0.11,0.00,0.99,1.00000,0.00007,-0.00003,0.00013,0.055,0.0330
2026,4,7,13:00:29.598,-1.246,159,-0.1,-0.1,-0.3,-0.11,0.01,0.99,1.00000,0.00007,-0.00003,0.00013,0.055,0.0310
2026,4,7,13:00:29.600,-1.244,161,-0.1,0.0,-0.4,-0.11,0.01,0.99,1.00000,0.00007,-0.00003,0.00013,0.055,0.0380
2026,4,7,13:00:29.602,-1.242,163,-0.1,0.0,-0.3,-0.12,0.01,0.99,1.00000,0.00007,-0.00003,0.00013,0.055,0.0360
2026,4,7,13:00:29.604,-1.240,165,0.0,0.0,-0.2,-0.09,0.00,0.95,1.00000,0.00007,-0.00003,0.00013,0.055,0.0310
2026,4,7,13:00:29.606,-1.238,167,-0.1,0.0,-0.3,-0.11,0.00,1.02,1.00000,0.00007,-0.00003,0.00010,0.055,0.0300
2026,4,7,13:00:29.608,-1.236,169,-0.1,0.1,-0.3,-0.12,0.00,1.00,1.00000,0.00007,-0.00003,0.00010,0.055,0.0220
2026,4,7,13:00:29.610,-1.234,171,0.0,0.0,-0.3,-0.12,0.03,0.95,1.00000,0.00007,-0.00003,0.00010,0.055,0.0360
2026,4,7,13:00:29.612,-1.232,173,-0.3,0.1,-0.4,-0.10,0.00,1.00,1.00000,0.00007,-0.00003,0.00010,0.055,0.0260
2026,4,7,13:00:29.614,-1.230,175,-0.1,0.0,-0.6,-0.10,0.00,1.01,1.00000,0.00007,-0.00003,0.00007,0.055,0.0360
2026,4,7,13:00:29.616,-1.228,177,0.0,0.0,-0.4,-0.12,0.01,1.00,1.00000,0.00007,-0.00003,0.00007,0.055,0.0250
2026,4,7,13:00:29.618,-1.226,179,0.0,0.1,-0.4,-0.10,0.00,0.98,1.00000,0.00003,-0.00003,0.00007,0.055,0.0260
2026,4,7,13:00:29.620,-1.224,181,0.0,0.0,-0.6,-0.10,0.00,0.97,1.00000,0.00003,-0.00003,0.00007,0.055,0.0300
2026,4,7,13:00:29.622,-1.222,183,-0.1,0.0,-0.6,-0.11,0.02,1.00,1.00000,0.00003,-0.00003,0.00003,0.055,0.0360
2026,4,7,13:00:29.624,-1.220,185,0.0,0.1,-0.4,-0.10,0.00,0.99,1.00000,0.00003,-0.00003,0.00003,0.055,0.0250
2026,4,7,13:00:29.626,-1.218,187,0.0,0.0,-0.4,-0.12,0.02,0.98,1.00000,0.00003,-0.00003,0.00003,0.055,0.0340
2026,4,7,13:00:29.628,-1.216,189,0.0,0.0,-0.4,-0.11,0.01,1.00,1.00000,0.00003,-0.00003,0.00003,0.055,0.0250
2026,4,7,13:00:29.630,-1.214,191,0.0,0.1,-0.4,-0.12,0.00,0.98,1.00000,0.00003,-0.00003,0.00000,0.055,0.0300
2026,4,7,13:00:29.632,-1.212,193,-0.1,0.1,-0.4,-0.12,0.02,0.99,1.00000,0.00003,-0.00003,0.00000,0.055,0.0340
2026,4,7,13:00:29.634,-1.210,195,-0.1,0.1,-0.6,-0.11,0.01,1.00,1.00000,0.00003,-0.00003,0.00000,0.055,0.0330
2026,4,7,13:00:29.636,-1.208,197,-0.1,0.1,-0.4,-0.12,0.01,0.97,1.00000,0.00003,-0.00003,0.00000,0.056,0.0330
2026,4,7,13:00:29.638,-1.206,199,-0.1,0.0,-0.3,-0.12,0.02,0.98,1.00000,0.00003,-0.00003,0.00000,0.055,0.0280
2026,4,7,13:00:29.640,-1.204,201,-0.1,0.1,-0.3,-0.11,0.00,1.00,1.00000,0.00003,0.00000,0.00000,0.055,0.0310
2026,4,7,13:00:29.642,-1.202,203,-0.1,0.1,-0.3,-0.10,0.00,0.99,1.00000,0.00003,0.00000,0.00000,0.055,0.0310
2026,4,7,13:00:29.644,-1.200,205,0.0,0.0,-0.2,-0.10,0.00,0.97,1.00000,0.00003,0.00000,0.00000,0.055,0.0250
2026,4,7,13:00:29.646,-1.198,207,0.0,0.0,-0.2,-0.11,0.00,0.99,1.00000,0.00003,0.00000,0.00000,0.055,0.0230
2026,4,7,13:00:29.648,-1.196,209,-0.3,0.0,0.0,-0.12,0.02,1.00,1.00000,0.00003,0.00000,0.00000,0.055,0.0280
2026,4,7,13:00:29.650,-1.194,211,-0.1,0.0,0.0,-0.13,0.00,0.98,1.00000,0.00000,0.00000,0.00000,0.055,0.0310
2026,4,7,13:00:29.652,-1.192,213,-0.1,0.0,0.0,-0.12,0.01,0.99,1.00000,0.00000,0.00000,0.00000,0.055,0.0390
2026,4,7,13:00:29.654,-1.190,215,-0.3,0.0,0.0,-0.12,0.01,0.99,1.00000,0.00000,0.00000,0.00000,0.055,0.0310
2026,4,7,13:00:29.656,-1.188,217,-0.1,-0.1,0.0,-0.11,0.00,0.99,1.00000,0.00000,0.00000,0.00000,0.056,0.0310
2026,4,7,13:00:29.658,-1.186,219,-0.1,0.0,0.0,-0.11,0.00,0.99,1.00000,0.00000,0.00000,0.00000,0.056,0.0310
2026,4,7,13:00:29.660,-1.184,221,-0.3,0.0,0.0,-0.11,0.00,0.99,1.00000,0.00000,0.00000,0.00000,0.055,0.0330
2026,4,7,13:00:29.662,-1.182,223,-0.1,-0.1,0.0,-0.10,0.00,0.99,1.00000,0.00000,-0.00003,0.00000,0.055,0.0260
2026,4,7,13:00:29.664,-1.180,225,-0.1,-0.1,0.0,-0.11,0.00,0.98,1.00000,0.00000,-0.00003,-0.00003,0.056,0.0330
2026,4,7,13:00:29.666,-1.178,227,-0.1,0.0,0.0,-0.12,0.00,0.99,1.00000,0.00000,-0.00003,0.00000,0.055,0.0390
2026,4,7,13:00:29.668,-1.176,229,-0.3,0.0,0.0,-0.11,0.01,0.99,1.00000,0.00000,-0.00003,-0.00003,0.055,0.0260
2026,4,7,13:00:29.670,-1.174,231,-0.1,0.0,0.0,-0.12,0.00,0.99,1.00000,0.00000,-0.00003,0.00000,0.056,0.0390
2026,4,7,13:00:29.672,-1.172,233,-0.1,0.0,0.0,-0.11,0.00,0.99,1.00000,0.00000,-0.00003,0.00000,0.055,0.0390
2026,4,7,13:00:29.674,-1.170,235,-0.3,0.0,0.0,-0.11,0.00,0.99,1.00000,0.00000,-0.00003,0.00000,0.055,0.0300
2026,4,7,13:00:29.676,-1.168,237,-0.1,0.0,0.0,-0.11,0.00,0.99,1.00000,0.00000,-0.00003,-0.00003,0.055,0.0310
2026,4,7,13:00:29.678,-1.166,239,0.0,0.1,0.0,-0.12,0.00,0.98,1.00000,0.00000,-0.00003,-0.00003,0.056,0.0310
2026,4,7,13:00:29.680,-1.164,241,0.0,0.0,0.0,-0.11,0.00,0.99,1.00000,0.00000,-0.00003,-0.00003,0.055,0.0340
2026,4,7,13:00:29.682,-1.162,243,0.0,0.0,-0.2,-0.11,0.00,0.98,1.00000,0.00000,-0.00003,-0.00003,0.056,0.0300
2026,4,7,13:00:29.684,-1.160,245,0.0,0.1,-0.2,-0.12,0.00,0.98,1.00000,0.00000,0.00000,-0.00003,0.056,0.0300
2026,4,7,13:00:29.686,-1.158,247,0.0,0.0,-0.2,-0.12,0.01,0.99,1.00000,0.00000,0.00000,-0.00003,0.055,0.0300
2026,4,7,13:00:29.688,-1.156,249,-0.1,0.0,-0.2,-0.11,0.01,0.99,1.00000,0.00000,0.00000,-0.00003,0.055,0.0390
2026,4,7,13:00:29.690,-1.154,1,-0.1,0.1,-0.2,-0.12,0.01,0.98,1.00000,0.00000,0.00000,-0.00003,0.056,0.0310
2026,4,7,13:00:29.692,-1.152,3,0.0,0.0,-0.2,-0.12,0.00,0.99,1.00000,-0.00003,0.00000,-0.00003,0.055,0.0280
2026,4,7,13:00:29.694,-1.150,5,-0.1,0.0,0.0,-0.11,0.00,0.99,1.00000,-0.00003,0.00000,-0.00003,0.056,0.0330
2026,4,7,13:00:29.696,-1.148,7,0.0,0.0,-0.2,-0.12,0.00,0.99,1.00000,-0.00003,0.00000,-0.00003,0.055,0.0310
2026,4,7,13:00:29.698,-1.146,9,-0.1,0.0,0.0,-0.12,0.01,0.99,1.00000,-0.00003,0.00000,-0.00003,0.056,0.0260
2026,4,7,13:00:29.700,-1.144,11,-0.1,0.0,-0.2,-0.12,0.00,0.99,1.00000,-0.00003,0.00000,-0.00003,0.055,0.0360
2026,4,7,13:00:29.702,-1.142,13,0.0,0.0,-0.2,-0.12,0.01,0.99,1.00000,-0.00003,0.00000,-0.00007,0.055,0.0390
2026,4,7,13:00:29.704,-1.140,15,0.0,0.0,0.0,-0.12,0.01,0.98,1.00000,-0.00003,0.00000,-0.00007,0.055,0.0280
2026,4,7,13:00:29.706,-1.138,17,-0.1,0.1,-0.2,-0.12,0.01,0.98,1.00000,-0.00003,0.00000,-0.00007,0.056,0.0310
2026,4,7,13:00:29.708,-1.136,19,-0.1,-0.1,-0.2,-0.12,0.00,0.99,1.00000,-0.00003,0.00000,-0.00007,0.055,0.0330
2026,4,7,13:00:29.710,-1.134,21,-0.1,0.0,-0.2,-0.11,0.00,0.99,1.00000,-0.00003,0.00000,-0.00007,0.055,0.0360
2026,4,7,13:00:29.712,-1.132,23,-0.1,0.0,-0.2,-0.11,0.00,0.99,1.00000,-0.00003,0.00000,-0.00007,0.055,0.0380
2026,4,7,13:00:29.714,-1.130,25,0.0,-0.1,-0.2,-0.11,0.00,0.99,1.00000,-0.00003,0.00000,-0.00007,0.055,0.0340
2026,4,7,13:00:29.716,-1.128,27,-0.1,0.0,-0.2,-0.12,0.00,0.99,1.00000,-0.00003,0.00000,-0.00007,0.055,0.0360
2026,4,7,13:00:29.718,-1.126,29,-0.1,0.0,-0.2,-0.12,0.00,0.99,1.00000,-0.00003,0.00000,-0.00007,0.055,0.0340
2026,4,7,13:00:29.720,-1.124,31,-0.1,-0.1,-0.2,-0.12,0.00,0.99,1.00000,-0.00007,-0.00003,-0.00007,0.056,0.0380
2026,4,7,13:00:29.722,-1.122,33,-0.1,0.0,-0.3,-0.11,0.00,0.98,1.00000,-0.00007,-0.00003,-0.00010,0.055,0.0310
2026,4,7,13:00:29.724,-1.120,35,0.0,-0.1,-0.2,-0.11,0.00,0.99,1.00000,-0.00007,-0.00003,-0.00010,0.055,0.0280
2026,4,7,13:00:29.726,-1.118,37,0.0,-0.1,-0.2,-0.11,0.00,0.99,1.00000,-0.00007,-0.00003,-0.00010,0.056,0.0280
2026,4,7,13:00:29.728,-1.116,39,0.0,-0.1,-0.2,-0.11,0.00,0.99,1.00000,-0.00007,-0.00003,-0.00010,0.056,0.0360
2026,4,7,13:00:29.730,-1.114,41,-0.1,0.0,-0.3,-0.11,0.00,0.99,1.00000,-0.00007,-0.00003,-0.00010,0.055,0.0260
2026,4,7,13:00:29.732,-1.112,43,-0.1,0.0,-0.3,-0.11,0.00,0.99,1.00000,-0.00007,-0.00003,-0.00010,0.055,0.0230
2026,4,7,13:00:29.734,-1.110,45,0.0,0.0,-0.3,-0.11,0.00,0.99,1.00000,-0.00007,-0.00003,-0.00013,0.055,0.0250
2026,4,7,13:00:29.736,-1.108,47,-0.1,0.0,-0.3,-0.11,0.00,0.99,1.00000,-0.00007,-0.00003,-0.00013,0.055,0.0300
2026,4,7,13:00:29.738,-1.106,49,-0.3,0.1,-0.3,-0.11,0.00,0.99,1.00000,-0.00007,-0.00003,-0.00013,0.055,0.0250
2026,4,7,13:00:29.740,-1.104,51,-0.1,0.0,-0.3,-0.11,0.00,0.98,1.00000,-0.00007,-0.00003,-0.00013,0.055,0.0310
2026,4,7,13:00:29.742,-1.102,53,0.0,0.0,-0.2,-0.11,0.00,0.99,1.00000,-0.00007,-0.00003,-0.00013,0.055,0.0260
2026,4,7,13:00:29.744,-1.100,55,-0.1,0.0,-0.3,-0.11,0.00,0.99,1.00000,-0.00007,-0.00003,-0.00013,0.055,0.0310
2026,4,7,13:00:29.746,-1.098,57,0.0,0.1,-0.3,-0.12,0.00,0.98,1.00000,-0.00010,-0.00003,-0.00017,0.055,0.0230
2026,4,7,13:00:29.748,-1.096,59,0.0,0.0,-0.2,-0.13,0.02,0.99,1.00000,-0.00010,-0.00003,-0.00017,0.055,0.0330
2026,4,7,13:00:29.750,-1.094,61,0.0,0.0,-0.2,-0.12,0.01,0.99,1.00000,-0.00010,-0.00003,-0.00017,0.055,0.0300
2026,4,7,13:00:29.752,-1.092,63,-0.1,0.0,0.0,-0.12,0.00,0.99,1.00000,-0.00010,-0.00003,-0.00017,0.056,0.0280
2026,4,7,13:00:29.754,-1.090,65,0.0,0.1,0.0,-0.11,0.00,0.99,1.00000,-0.00010,-0.00003,-0.00017,0.055,0.0280
2026,4,7,13:00:29.756,-1.088,67,0.0,0.0,0.0,-0.10,0.00,0.99,1.00000,-0.00010,-0.00003,-0.00017,0.055,0.0260
2026,4,7,13:00:29.758,-1.086,69,0.0,-0.1,0.0,-0.11,0.00,0.99,1.00000,-0.00010,-0.00003,-0.00017,0.056,0.0300
2026,4,7,13:00:29.760,-1.084,71,0.0,0.0,0.0,-0.11,0.00,0.98,1.00000,-0.00010,-0.00003,-0.00017,0.056,0.0310
2026,4,7,13:00:29.762,-1.082,73,-0.1,0.1,0.0,-0.12,0.00,0.99,1.00000,-0.00010,-0.00003,-0.00017,0.056,0.0260
2026,4,7,13:00:29.764,-1.080,75,0.0,0.0,0.0,-0.12,0.01,0.99,1.00000,-0.00010,-0.00003,-0.00017,0.055,0.0360
2026,4,7,13:00:29.766,-1.078,77,0.0,0.0,0.0,-0.13,0.00,0.98,1.00000,-0.00010,-0.00003,-0.00017,0.055,0.0250
2026,4,7,13:00:29.768,-1.076,79,0.0,0.1,0.2,-0.12,0.00,0.99,1.00000,-0.00010,0.00000,-0.00017,0.055,0.0360
2026,4,7,13:00:29.770,-1.074,81,0.0,0.0,0.2,-0.11,0.00,0.98,1.00000,-0.00010,0.00000,-0.00017,0.055,0.0340
2026,4,7,13:00:29.772,-1.072,83,0.0,0.1,0.0,-0.11,0.00,0.99,1.00000,-0.00010,0.00000,-0.00017,0.056,0.0300
2026,4,7,13:00:29.774,-1.070,85,0.0,0.0,0.0,-0.11,0.00,0.99,1.00000,-0.00010,0.00000,-0.00017,0.055,0.0330
2026,4,7,13:00:29.776,-1.068,87,0.0,0.0,0.0,-0.11,0.00,0.99,1.00000,-0.00010,0.00000,-0.00017,0.056,0.0230
2026,4,7,13:00:29.778,-1.066,89,0.0,0.0,0.0,-0.11,0.00,0.98,1.00000,-0.00010,0.00000,-0.00017,0.056,0.0300
2026,4,7,13:00:29.780,-1.064,91,0.0,0.0,0.0,-0.12,0.01,0.99,1.00000,-0.00010,0.00000,-0.00017,0.055,0.0380
2026,4,7,13:00:29.782,-1.062,93,0.0,0.0,0.0,-0.11,0.00,0.99,1.00000,-0.00010,0.00000,-0.00017,0.055,0.0250
2026,4,7,13:00:29.784,-1.060,95,0.0,0.0,0.2,-0.11,0.00,0.98,1.00000,-0.00010,0.00000,-0.00013,0.056,0.0330
2026,4,7,13:00:29.786,-1.058,97,0.0,-0.1,0.0,-0.11,0.00,0.99,1.00000,-0.00010,0.00000,-0.00013,0.055,0.0410
2026,4,7,13:00:29.788,-1.056,99,0.0,0.0,0.2,-0.11,0.00,0.99,1.00000,-0.00010,0.00000,-0.00013,0.055,0.0300
2026,4,7,13:00:29.790,-1.054,101,0.0,0.1,0.2,-0.11,0.00,0.99,1.00000,-0.00010,0.00000,-0.00013,0.055,0.0280
2026,4,7,13:00:29.792,-1.052,103,0.0,0.1,0.0,-0.11,0.00,0.99,1.00000,-0.00010,0.00000,-0.00013,0.055,0.0340
2026,4,7,13:00:29.794,-1.050,105,0.0,0.0,0.0,-0.11,0.00,0.99,1.00000,-0.00010,0.00000,-0.00013,0.056,0.0220
2026,4,7,13:00:29.796,-1.048,107,0.0,0.0,0.0,-0.12,0.00,0.98,1.00000,-0.00010,0.00000,-0.00013,0.055,0.0280
2026,4,7,13:00:29.798,-1.046,109,0.0,0.1,0.0,-0.11,0.00,0.99,1.00000,-0.00010,0.00000,-0.00013,0.055,0.0300
2026,4,7,13:00:29.800,-1.044,111,0.0,0.1,0.0,-0.12,0.00,0.99,1.00000,-0.00010,0.00000,-0.00013,0.055,0.0300
2026,4,7,13:00:29.802,-1.042,113,0.0,0.0,0.0,-0.11,0.01,0.98,1.00000,-0.00010,0.00000,-0.00013,0.056,0.0280
2026,4,7,13:00:29.804,-1.040,115,0.0,0.0,0.0,-0.11,0.01,0.99,1.00000,-0.00010,0.00000,-0.00013,0.055,0.0300
2026,4,7,13:00:29.806,-1.038,117,0.0,-0.1,0.0,-0.11,0.00,0.99,1.00000,-0.00010,0.00000,-0.00013,0.055,0.0280
2026,4,7,13:00:29.808,-1.036,119,0.2,0.0,0.0,-0.11,0.00,0.98,1.00000,-0.00010,0.00000,-0.00013,0.056,0.0380
2026,4,7,13:00:29.810,-1.034,121,0.0,0.0,0.0,-0.12,0.00,0.99,1.00000,0.00000,0.00000,0.00000,0.055,0.0260
2026,4,7,13:00:29.812,-1.032,123,0.0,0.0,0.0,-0.11,0.00,0.99,1.00000,0.00000,0.00000,0.00000,0.055,0.0300
2026,4,7,13:00:29.814,-1.030,125,0.0,0.0,0.0,-0.11,0.00,1.00,1.00000,0.00000,0.00000,0.00000,0.056,0.0420
2026,4,7,13:00:29.816,-1.028,127,0.0,-0.1,0.0,-0.12,0.00,0.98,1.00000,0.00000,0.00000,0.00000,0.056,0.0330
2026,4,7,13:00:29.818,-1.026,129,0.0,0.0,0.0,-0.12,0.00,0.98,1.00000,0.00000,0.00000,0.00000,0.056,0.0230
2026,4,7,13:00:29.820,-1.024,131,0.0,0.0,0.0,-0.11,0.01,1.00,1.00000,0.00000,0.00000,0.00000,0.055,0.0280
2026,4,7,13:00:29.822,-1.022,133,0.0,0.0,0.0,-0.11,0.00,0.98,1.00000,0.00000,0.00000,0.00000,0.055,0.0330
2026,4,7,13:00:29.824,-1.020,135,0.0,0.0,0.0,-0.11,0.00,0.99,1.00000,0.00000,0.00000,0.00000,0.055,0.0310
2026,4,7,13:00:29.826,-1.018,137,0.0,0.1,0.0,-0.11,0.00,0.99,1.00000,0.00000,0.00000,0.00000,0.056,0.0280
2026,4,7,13:00:29.828,-1.016,139,0.0,0.0,0.0,-0.11,0.00,0.98,1.00000,0.00000,0.00000,0.00000,0.055,0.0230
2026,4,7,13:00:29.830,-1.014,141,0.0,0.0,0.0,-0.12,0.00,0.99,1.00000,0.00000,0.00000,0.00000,0.055,0.0280
2026,4,7,13:00:29.832,-1.012,143,0.0,-0.1,0.0,-0.12,0.00,0.99,1.00000,0.00000,0.00000,0.00000,0.056,0.0390
2026,4,7,13:00:29.834,-1.010,145,0.0,0.0,0.0,-0.12,0.00,0.98,1.00000,0.00000,0.00000,0.00000,0.056,0.0340
2026,4,7,13:00:29.836,-1.008,147,0.0,0.0,0.0,-0.11,0.00,0.98,1.00000,0.00000,0.00000,0.00000,0.055,0.0300
2026,4,7,13:00:29.838,-1.006,149,0.2,0.0,0.0,-0.12,0.00,0.99,1.00000,0.00000,0.00000,0.00000,0.056,0.0300
2026,4,7,13:00:29.840,-1.004,151,0.0,0.0,0.0,-0.11,0.00,0.99,1.00000,0.00000,0.00000,0.00000,0.055,0.0310
2026,4,7,13:00:29.842,-1.002,153,0.0,0.0,0.0,-0.10,0.00,0.99,1.00000,0.00000,0.00000,0.00000,0.055,0.0260
2026,4,7,13:00:29.844,-1.000,155,0.0,0.0,0.0,-0.11,0.00,0.99,1.00000,0.00000,0.00000,0.00000,0.055,0.0280
2026,4,7,13:00:29.846,-0.998,157,0.0,0.1,0.0,-0.11,0.00,0.99,1.00000,0.00000,0.00000,0.00000,0.056,0.0260
2026,4,7,13:00:29.848,-0.996,159,0.0,0.0,0.0,-0.11,0.00,0.99,1.00000,0.00000,0.00000,0.00000,0.055,0.0300
2026,4,7,13:00:29.850,-0.994,161,0.0,0.0,0.0,-0.12,0.00,0.99,1.00000,0.00000,0.00000,0.00000,0.056,0.0280
2026,4,7,13:00:29.852,-0.992,163,0.0,0.0,0.0,-0.12,0.00,0.99,1.00000,0.00000,0.00000,0.00000,0.055,0.0260
2026,4,7,13:00:29.854,-0.990,165,0.0,0.1,0.0,-0.11,0.00,0.99,1.00000,0.00000,0.00000,0.00000,0.056,0.0280
2026,4,7,13:00:29.856,-0.988,167,0.2,0.0,0.2,-0.11,0.00,0.98,1.00000,0.00000,0.00000,0.00000,0.055,0.0200
2026,4,7,13:00:29.858,-0.986,169,0.0,0.0,0.2,-0.11,0.00,0.99,1.00000,0.00000,0.00000,0.00000,0.055,0.0250
2026,4,7,13:00:29.860,-0.984,171,0.2,0.0,0.0,-0.11,0.00,0.99,1.00000,0.00003,0.00000,0.00000,0.055,0.0200
2026,4,7,13:00:29.862,-0.982,173,0.2,0.0,0.0,-0.11,0.00,0.98,1.00000,0.00003,0.00000,0.00000,0.055,0.0300
2026,4,7,13:00:29.864,-0.980,175,0.2,0.0,0.0,-0.12,0.00,0.99,1.00000,0.00003,0.00000,0.00000,0.055,0.0170
2026,4,7,13:00:29.866,-0.978,177,0.0,0.0,0.2,-0.12,0.00,0.99,1.00000,0.00003,0.00000,0.00000,0.055,0.0300
2026,4,7,13:00:29.868,-0.976,179,0.2,0.1,0.0,-0.11,0.00,0.99,1.00000,0.00003,0.00000,0.00000,0.055,0.0220
2026,4,7,13:00:29.870,-0.974,181,0.0,0.1,0.2,-0.12,0.00,0.98,1.00000,0.00003,0.00000,0.00000,0.055,0.0200
2026,4,7,13:00:29.872,-0.972,183,0.2,0.0,0.2,-0.11,0.00,0.99,1.00000,0.00003,0.00000,0.00000,0.055,0.0250
2026,4,7,13:00:29.874,-0.970,185,0.0,0.1,0.3,-0.11,0.00,0.98,1.00000,0.00003,0.00000,0.00003,0.055,0.0260
2026,4,7,13:00:29.876,-0.968,187,0.0,0.0,0.2,-0.11,0.00,0.99,1.00000,0.00003,0.00000,0.00003,0.055,0.0200
2026,4,7,13:00:29.878,-0.966,189,0.2,0.0,0.2,-0.11,0.00,0.99,1.00000,0.00003,0.00000,0.00003,0.055,0.0250
2026,4,7,13:00:29.880,-0.964,191,0.2,0.1,0.2,-0.11,0.00,0.98,1.00000,0.00003,0.00000,0.00003,0.055,0.0310
2026,4,7,13:00:29.882,-0.962,193,0.0,0.0,0.2,-0.12,0.00,0.99,1.00000,0.00003,0.00000,0.00003,0.055,0.0250
2026,4,7,13:00:29.884,-0.960,195,0.2,0.0,0.3,-0.11,0.00,0.99,1.00000,0.00007,0.00000,0.00003,0.056,0.0330
2026,4,7,13:00:29.886,-0.958,197,0.0,0.0,0.3,-0.11,0.00,0.98,1.00000,0.00007,0.00000,0.00003,0.055,0.0250
2026,4,7,13:00:29.888,-0.956,199,0.2,0.0,0.3,-0.11,0.00,0.99,1.00000,0.00007,0.00000,0.00007,0.055,0.0280
2026,4,7,13:00:29.890,-0.954,201,0.0,0.0,0.3,-0.11,0.00,0.99,1.00000,0.00007,0.00000,0.00007,0.055,0.0250
2026,4,7,13:00:29.892,-0.952,203,0.2,0.1,0.3,-0.11,0.00,0.98,1.00000,0.00007,0.00000,0.00007,0.055,0.0330
2026,4,7,13:00:29.894,-0.950,205,0.0,0.1,0.3,-0.11,0.00,0.99,1.00000,0.00007,0.00000,0.00007,0.055,0.0390
2026,4,7,13:00:29.896,-0.948,207,0.0,0.1,0.3,-0.11,0.00,0.99,1.00000,0.00007,0.00000,0.00007,0.055,0.0330
2026,4,7,13:00:29.898,-0.946,209,0.2,0.0,0.3,-0.11,0.00,0.99,1.00000,0.00007,0.00000,0.00010,0.055,0.0300
2026,4,7,13:00:29.900,-0.944,211,0.2,0.0,0.3,-0.11,0.00,0.99,1.00000,0.00007,0.00000,0.00010,0.055,0.0260
2026,4,7,13:00:29.902,-0.942,213,0.0,0.0,0.3,-0.11,0.00,0.99,1.00000,0.00007,0.00000,0.00010,0.055,0.0230
2026,4,7,13:00:29.904,-0.940,215,0.0,0.1,0.3,-0.11,0.00,0.99,1.00000,0.00007,0.00000,0.00010,0.055,0.0310
2026,4,7,13:00:29.906,-0.938,217,0.2,0.0,0.3,-0.11,0.00,0.99,1.00000,0.00007,0.00000,0.00010,0.055,0.0300
2026,4,7,13:00:29.908,-0.936,219,0.0,-0.1,0.3,-0.11,0.00,0.99,1.00000,0.00007,0.00000,0.00010,0.055,0.0230
2026,4,7,13:00:29.910,-0.934,221,0.2,0.0,0.2,-0.12,0.00,0.99,1.00000,0.00010,0.00000,0.00013,0.055,0.0310
2026,4,7,13:00:29.912,-0.932,223,0.0,0.0,0.3,-0.12,0.00,0.99,1.00000,0.00010,0.00000,0.00013,0.056,0.0300
2026,4,7,13:00:29.914,-0.930,225,0.2,0.1,0.2,-0.12,0.00,0.99,1.00000,0.00010,0.00000,0.00013,0.055,0.0230
2026,4,7,13:00:29.916,-0.928,227,0.0,0.0,0.2,-0.12,0.00,0.99,1.00000,0.00010,0.00000,0.00013,0.055,0.0260
2026,4,7,13:00:29.918,-0.926,229,0.2,0.0,0.2,-0.12,0.00,0.99,1.00000,0.00010,0.00000,0.00013,0.055,0.0310
2026,4,7,13:00:29.920,-0.924,231,0.2,0.1,0.2,-0.12,0.00,0.99,1.00000,0.00010,0.00000,0.00013,0.055,0.0230
2026,4,7,13:00:29.922,-0.922,233,0.2,0.0,0.2,-0.12,0.00,0.99,1.00000,0.00010,0.00000,0.00013,0.055,0.0280
2026,4,7,13:00:29.924,-0.920,235,0.2,0.1,0.2,-0.11,0.00,0.99,1.00000,0.00010,0.00000,0.00013,0.055,0.0300
2026,4,7,13:00:29.926,-0.918,237,0.2,0.0,0.2,-0.12,0.01,0.99,1.00000,0.00010,0.00000,0.00017,0.055,0.0230
2026,4,7,13:00:29.928,-0.916,239,0.2,0.1,0.0,-0.11,0.00,0.99,1.00000,0.00013,0.00000,0.00017,0.055,0.0250
2026,4,7,13:00:29.930,-0.914,241,0.2,0.0,0.2,-0.12,0.00,0.98,1.00000,0.00013,0.00000,0.00017,0.055,0.0250
2026,4,7,13:00:29.932,-0.912,243,0.3,0.0,0.2,-0.12,0.00,0.99,1.00000,0.00013,0.00000,0.00017,0.055,0.0230
2026,4,7,13:00:29.934,-0.910,245,0.2,0.0,0.0,-0.11,0.00,0.99,1.00000,0.00013,0.00000,0.00017,0.055,0.0280
2026,4,7,13:00:29.936,-0.908,247,0.2,0.0,0.0,-0.11,0.00,0.99,1.00000,0.00013,0.00000,0.00017,0.055,0.0380
2026,4,7,13:00:29.938,-0.906,249,0.2,-0.1,0.2,-0.11,0.00,0.99,1.00000,0.00013,0.00000,0.00017,0.055,0.0330
2026,4,7,13:00:29.940,-0.904,1,0.2,0.0,0.0,-0.11,0.00,0.98,1.00000,0.00013,0.00000,0.00017,0.055,0.0250
2026,4,7,13:00:29.942,-0.902,3,0.2,-0.1,0.2,-0.12,0.00,0.99,1.00000,0.00013,0.00000,0.00017,0.055,0.0340
2026,4,7,13:00:29.944,-0.900,5,0.2,0.0,0.2,-0.11,0.00,0.98,1.00000,0.00017,0.00000,0.00017,0.056,0.0340
2026,4,7,13:00:29.946,-0.898,7,0.2,0.0,0.0,-0.12,0.01,0.99,1.00000,0.00017,0.00000,0.00017,0.055,0.0260
2026,4,7,13:00:29.948,-0.896,9,0.3,0.0,0.0,-0.11,0.00,0.99,1.00000,0.00017,0.00000,0.00017,0.055,0.0220
2026,4,7,13:00:29.950,-0.894,11,0.2,0.0,0.0,-0.11,0.00,0.99,1.00000,0.00017,0.00000,0.00017,0.055,0.0300
2026,4,7,13:00:29.952,-0.892,13,0.0,0.0,0.0,-0.11,0.00,0.99,1.00000,0.00017,0.00000,0.00020,0.055,0.0330
2026,4,7,13:00:29.954,-0.890,15,0.2,0.1,0.0,-0.11,0.00,0.99,1.00000,0.00017,0.00000,0.00020,0.055,0.0230
2026,4,7,13:00:29.956,-0.888,17,0.2,0.1,0.0,-0.11,0.00,0.98,1.00000,0.00017,0.00000,0.00020,0.055,0.0250
2026,4,7,13:00:29.958,-0.886,19,0.2,0.0,0.0,-0.11,0.01,0.99,1.00000,0.00017,0.00000,0.00020,0.055,0.0300
2026,4,7,13:00:29.960,-0.884,21,0.2,0.0,0.0,-0.11,0.01,0.99,1.00000,0.00020,0.00000,0.00020,0.055,0.0330
2026,4,7,13:00:29.962,-0.882,23,0.3,0.1,0.0,-0.11,0.01,0.99,1.00000,0.00020,0.00003,0.00020,0.055,0.0280
2026,4,7,13:00:29.964,-0.880,25,0.2,0.0,0.0,-0.12,0.01,0.99,1.00000,0.00020,0.00003,0.00020,0.055,0.0280
2026,4,7,13:00:29.966,-0.878,27,0.2,0.0,0.0,-0.11,0.01,0.99,1.00000,0.00020,0.00003,0.00020,0.056,0.0260
2026,4,7,13:00:29.968,-0.876,29,0.2,0.0,0.2,-0.12,0.01,0.99,1.00000,0.00020,0.00003,0.00020,0.055,0.0330
2026,4,7,13:00:29.970,-0.874,31,0.2,0.1,0.2,-0.12,0.01,0.99,1.00000,0.00020,0.00003,0.00020,0.055,0.0250
2026,4,7,13:00:29.972,-0.872,33,0.2,0.1,0.2,-0.12,0.00,0.99,1.00000,0.00020,0.00003,0.00020,0.055,0.0280
2026,4,7,13:00:29.974,-0.870,35,0.2,0.0,0.2,-0.12,0.01,0.99,1.00000,0.00023,0.00003,0.00020,0.056,0.0300
2026,4,7,13:00:29.976,-0.868,37,0.2,0.1,0.2,-0.11,0.00,0.99,1.00000,0.00023,0.00003,0.00020,0.055,0.0250
2026,4,7,13:00:29.978,-0.866,39,0.2,0.0,0.2,-0.12,0.01,0.98,1.00000,0.00023,0.00003,0.00023,0.055,0.0300
2026,4,7,13:00:29.980,-0.864,41,0.2,0.0,0.2,-0.11,0.01,0.99,1.00000,0.00023,0.00003,0.00023,0.055,0.0300
2026,4,7,13:00:29.982,-0.862,43,0.3,-0.1,0.2,-0.12,0.01,0.99,1.00000,0.00023,0.00003,0.00023,0.055,0.0260
2026,4,7,13:00:29.984,-0.860,45,0.2,0.0,0.2,-0.11,0.01,0.99,1.00000,0.00023,0.00003,0.00023,0.055,0.0380
2026,4,7,13:00:29.986,-0.858,47,0.2,0.0,0.3,-0.12,0.00,0.99,1.00000,0.00023,0.00003,0.00023,0.055,0.0330
2026,4,7,13:00:29.988,-0.856,49,0.0,0.1,0.3,-0.12,0.01,0.99,1.00000,0.00023,0.00003,0.00023,0.055,0.0280
2026,4,7,13:00:29.990,-0.854,51,0.2,0.0,0.3,-0.11,0.01,0.99,1.00000,0.00027,0.00003,0.00023,0.055,0.0340
2026,4,7,13:00:29.992,-0.852,53,0.0,0.0,0.3,-0.11,0.00,0.99,1.00000,0.00027,0.00003,0.00027,0.055,0.0300
2026,4,7,13:00:29.994,-0.850,55,0.2,0.1,0.3,-0.11,0.01,0.99,1.00000,0.00027,0.00003,0.00027,0.055,0.0300
2026,4,7,13:00:29.996,-0.848,57,0.0,0.0,0.3,-0.11,0.01,0.99,1.00000,0.00027,0.00003,0.00027,0.055,0.0380
2026,4,7,13:00:29.998,-0.846,59,0.0,0.0,0.3,-0.11,0.01,0.99,1.00000,0.00027,0.00003,0.00027,0.055,0.0360
2026,4,7,13:00:30.000,-0.844,61,0.0,0.0,0.3,-0.11,0.01,0.99,1.00000,0.00027,0.00003,0.00027,0.055,0.0310
2026,4,7,13:00:30.002,-0.842,63,0.0,0.0,0.5,-0.11,0.01,0.99,1.00000,0.00027,0.00003,0.00030,0.055,0.0310
2026,4,7,13:00:30.004,-0.840,65,0.0,0.1,0.3,-0.11,0.01,0.99,0.99997,0.00027,0.00003,0.00030,0.055,0.0330
2026,4,7,13:00:30.006,-0.838,67,0.2,0.1,0.5,-0.11,0.01,0.99,0.99997,0.00027,0.00003,0.00030,0.055,0.0300
2026,4,7,13:00:30.008,-0.836,69,0.2,0.0,0.3,-0.11,0.01,0.99,0.99997,0.00027,0.00003,0.00030,0.056,0.0260
2026,4,7,13:00:30.010,-0.834,71,0.0,-0.1,0.3,-0.12,0.01,0.99,0.99997,0.00027,0.00003,0.00033,0.055,0.0310
2026,4,7,13:00:30.012,-0.832,73,0.2,0.0,0.2,-0.11,0.01,0.98,0.99997,0.00027,0.00003,0.00033,0.055,0.0230
2026,4,7,13:00:30.014,-0.830,75,0.2,0.0,0.3,-0.12,0.01,0.99,0.99997,0.00027,0.00003,0.00033,0.055,0.0330
2026,4,7,13:00:30.016,-0.828,77,0.0,0.0,0.3,-0.11,0.01,0.99,0.99997,0.00030,0.00003,0.00033,0.055,0.0360
2026,4,7,13:00:30.018,-0.826,79,0.0,0.0,0.2,-0.12,0.01,0.99,0.99997,0.00030,0.00003,0.00033,0.056,0.0360
2026,4,7,13:00:30.020,-0.824,81,0.0,0.0,0.2,-0.12,0.01,0.99,0.99997,0.00030,0.00003,0.00033,0.056,0.0280
2026,4,7,13:00:30.022,-0.822,83,0.2,0.0,0.2,-0.12,0.01,0.99,0.99997,0.00030,0.00003,0.00033,0.055,0.0310
2026,4,7,13:00:30.024,-0.820,85,0.0,0.0,0.0,-0.12,0.01,0.98,0.99997,0.00030,0.00003,0.00033,0.055,0.0280
2026,4,7,13:00:30.026,-0.818,87,0.0,-0.1,0.0,-0.12,0.01,0.99,0.99997,0.00030,0.00003,0.00033,0.055,0.0310
2026,4,7,13:00:30.028,-0.816,89,0.2,0.0,0.0,-0.12,0.01,0.99,0.99997,0.00030,0.00003,0.00037,0.055,0.0250
2026,4,7,13:00:30.030,-0.814,91,0.2,0.0,0.0,-0.12,0.00,0.98,0.99997,0.00030,0.00003,0.00033,0.055,0.0230
2026,4,7,13:00:30.032,-0.812,93,0.2,-0.2,0.0,-0.12,0.00,0.98,0.99997,0.00030,0.00003,0.00037,0.055,0.0330
2026,4,7,13:00:30.034,-0.810,95,0.0,0.0,0.0,-0.12,0.01,0.98,0.99997,0.00030,0.00003,0.00037,0.056,0.0310
2026,4,7,13:00:30.036,-0.808,97,0.0,0.0,0.0,-0.12,0.01,0.98,0.99997,0.00030,0.00003,0.00037,0.055,0.0310
2026,4,7,13:00:30.038,-0.806,99,0.2,0.0,0.0,-0.12,0.01,0.99,0.99997,0.00030,0.00003,0.00037,0.055,0.0380
2026,4,7,13:00:30.040,-0.804,101,0.2,0.1,0.0,-0.12,0.01,0.99,0.99997,0.00033,0.00003,0.00033,0.055,0.0280
2026,4,7,13:00:30.042,-0.802,103,0.2,0.0,0.0,-0.12,0.01,0.99,0.99997,0.00033,0.00003,0.00033,0.055,0.0280
2026,4,7,13:00:30.044,-0.800,105,0.2,0.0,0.0,-0.12,0.01,0.99,0.99997,0.00033,0.00003,0.00033,0.055,0.0310
2026,4,7,13:00:30.046,-0.798,107,0.2,-0.1,0.0,-0.12,0.01,0.99,0.99997,0.00033,0.00003,0.00033,0.055,0.0260
2026,4,7,13:00:30.048,-0.796,109,0.0,-0.1,0.0,-0.11,0.01,0.99,0.99997,0.00033,0.00003,0.00033,0.055,0.0300
2026,4,7,13:00:30.050,-0.794,111,0.0,0.0,0.0,-0.12,0.01,0.99,0.99997,0.00033,0.00003,0.00033,0.055,0.0250
2026,4,7,13:00:30.052,-0.792,113,0.2,-0.1,0.0,-0.11,0.01,0.98,0.99997,0.00033,0.00003,0.00033,0.055,0.0310
2026,4,7,13:00:30.054,-0.790,115,0.2,-0.1,0.0,-0.11,0.01,0.99,0.99997,0.00033,0.00000,0.00033,0.055,0.0360
2026,4,7,13:00:30.056,-0.788,117,0.0,0.0,0.0,-0.11,0.01,0.99,0.99997,0.00033,0.00000,0.00037,0.055,0.0300
2026,4,7,13:00:30.058,-0.786,119,0.0,0.0,0.0,-0.11,0.01,0.98,0.99997,0.00033,0.00000,0.00037,0.055,0.0330
2026,4,7,13:00:30.060,-0.784,121,0.0,0.0,0.0,-0.12,0.01,0.99,0.99997,0.00033,0.00000,0.00037,0.055,0.0330
2026,4,7,13:00:30.062,-0.782,123,0.2,0.0,0.0,-0.11,0.01,0.99,0.99997,0.00037,0.00000,0.00037,0.055,0.0310
2026,4,7,13:00:30.064,-0.780,125,0.0,0.0,0.0,-0.11,0.02,0.99,0.99997,0.00037,0.00000,0.00037,0.055,0.0330
2026,4,7,13:00:30.066,-0.778,127,0.0,0.0,0.2,-0.12,0.01,0.99,0.99997,0.00037,0.00000,0.00037,0.056,0.0340
2026,4,7,13:00:30.068,-0.776,129,0.0,0.0,0.2,-0.11,0.01,0.98,0.99997,0.00037,0.00000,0.00037,0.055,0.0280
2026,4,7,13:00:30.070,-0.774,131,0.0,0.0,0.2,-0.12,0.01,0.99,0.99997,0.00037,0.00000,0.00037,0.055,0.0280
2026,4,7,13:00:30.072,-0.772,133,0.0,-0.1,0.2,-0.11,0.01,0.99,0.99997,0.00037,0.00000,0.00037,0.056,0.0340
2026,4,7,13:00:30.074,-0.770,135,0.0,0.0,0.2,-0.11,0.01,0.99,0.99997,0.00037,0.00000,0.00037,0.055,0.0310
2026,4,7,13:00:30.076,-0.768,137,0.0,0.0,0.2,-0.12,0.01,0.99,0.99997,0.00037,0.00000,0.00037,0.055,0.0260
2026,4,7,13:00:30.078,-0.766,139,0.0,0.0,0.2,-0.12,0.01,0.99,0.99997,0.00037,0.00000,0.00040,0.055,0.0220
2026,4,7,13:00:30.080,-0.764,141,0.0,-0.1,0.3,-0.12,0.01,0.98,0.99997,0.00037,0.00000,0.00040,0.055,0.0250
2026,4,7,13:00:30.082,-0.762,143,0.0,0.0,0.3,-0.12,0.01,0.99,0.99997,0.00037,0.00000,0.00040,0.055,0.0300
2026,4,7,13:00:30.084,-0.760,145,0.0,-0.1,0.2,-0.12,0.01,0.98,0.99997,0.00037,0.00000,0.00040,0.055,0.0250
2026,4,7,13:00:30.086,-0.758,147,0.0,-0.1,0.2,-0.12,0.01,0.98,0.99997,0.00037,0.00000,0.00040,0.056,0.0230
2026,4,7,13:00:30.088,-0.756,149,0.0,-0.1,0.0,-0.12,0.01,0.99,0.99997,0.00037,0.00000,0.00040,0.056,0.0330
2026,4,7,13:00:30.090,-0.754,151,0.0,-0.1,0.2,-0.11,0.01,0.99,0.99997,0.00037,0.00000,0.00040,0.056,0.0280
2026,4,7,13:00:30.092,-0.752,153,0.0,0.0,0.0,-0.12,0.01,0.99,0.99997,0.00037,0.00000,0.00040,0.055,0.0300
2026,4,7,13:00:30.094,-0.750,155,0.0,0.0,0.2,-0.12,0.01,0.99,0.99997,0.00037,0.00000,0.00040,0.055,0.0250
2026,4,7,13:00:30.096,-0.748,157,0.0,-0.1,0.2,-0.12,0.01,0.99,0.99997,0.00037,0.00000,0.00043,0.055,0.0280
2026,4,7,13:00:30.098,-0.746,159,0.0,-0.1,0.0,-0.12,0.01,0.99,0.99997,0.00037,0.00000,0.00043,0.055,0.0230
2026,4,7,13:00:30.100,-0.744,161,0.0,-0.1,0.0,-0.12,0.01,0.99,0.99997,0.00037,0.00000,0.00043,0.055,0.0310
2026,4,7,13:00:30.102,-0.742,163,0.0,0.0,0.0,-0.12,0.01,0.99,0.99997,0.00037,0.00000,0.00043,0.056,0.0280
2026,4,7,13:00:30.104,-0.740,165,0.0,-0.1,0.0,-0.12,0.01,0.98,0.99997,0.00037,0.00000,0.00043,0.055,0.0380
2026,4,7,13:00:30.106,-0.738,167,0.0,-0.1,0.0,-0.11,0.01,0.99,0.99997,0.00037,0.00000,0.00043,0.055,0.0260
2026,4,7,13:00:30.108,-0.736,169,0.0,-0.1,-0.1,-0.11,0.01,0.99,0.99997,0.00037,0.00000,0.00043,0.055,0.0310
2026,4,7,13:00:30.110,-0.734,171,0.0,-0.1,0.0,-0.11,0.01,0.99,0.99997,0.00037,0.00000,0.00043,0.055,0.0220
2026,4,7,13:00:30.112,-0.732,173,0.0,-0.1,0.0,-0.11,0.01,0.99,0.99997,0.00037,0.00000,0.00043,0.056,0.0250
2026,4,7,13:00:30.114,-0.730,175,0.0,0.0,0.0,-0.11,0.01,0.98,0.99997,0.00037,0.00000,0.00043,0.056,0.0300
2026,4,7,13:00:30.116,-0.728,177,0.0,-0.1,0.0,-0.11,0.02,0.99,0.99997,0.00037,0.00000,0.00043,0.055,0.0250
2026,4,7,13:00:30.118,-0.726,179,-0.1,-0.1,0.0,-0.11,0.01,0.99,0.99997,0.00037,0.00000,0.00043,0.055,0.0220
2026,4,7,13:00:30.120,-0.724,181,0.0,-0.1,0.0,-0.11,0.02,0.98,0.99997,0.00037,0.00000,0.00043,0.055,0.0250
2026,4,7,13:00:30.122,-0.722,183,0.0,-0.1,0.0,-0.11,0.02,0.99,0.99997,0.00037,0.00000,0.00043,0.055,0.0250
2026,4,7,13:00:30.124,-0.720,185,0.0,-0.1,0.0,-0.12,0.01,0.99,0.99997,0.00037,0.00000,0.00043,0.055,0.0300
2026,4,7,13:00:30.126,-0.718,187,0.0,0.0,0.0,-0.12,0.02,0.99,0.99997,0.00037,0.00000,0.00043,0.055,0.0340
2026,4,7,13:00:30.128,-0.716,189,0.0,0.0,0.0,-0.12,0.01,0.99,0.99997,0.00037,0.00000,0.00043,0.055,0.0280
2026,4,7,13:00:30.130,-0.714,191,0.0,0.0,0.0,-0.12,0.01,0.98,0.99997,0.00037,0.00000,0.00040,0.055,0.0260
2026,4,7,13:00:30.132,-0.712,193,0.0,-0.1,0.0,-0.12,0.01,0.99,0.99997,0.00037,0.00000,0.00040,0.055,0.0230
2026,4,7,13:00:30.134,-0.710,195,0.0,-0.1,0.0,-0.12,0.01,0.99,0.99997,0.00037,0.00000,0.00040,0.055,0.0200
2026,4,7,13:00:30.136,-0.708,197,0.0,-0.1,0.0,-0.12,0.01,0.98,0.99997,0.00037,0.00000,0.00040,0.055,0.0260
2026,4,7,13:00:30.138,-0.706,199,0.0,-0.1,0.0,-0.11,0.01,0.99,0.99997,0.00037,0.00000,0.00040,0.055,0.0230
2026,4,7,13:00:30.140,-0.704,201,-0.1,0.0,0.0,-0.11,0.01,0.98,0.99997,0.00037,0.00000,0.00040,0.055,0.0250
2026,4,7,13:00:30.142,-0.702,203,-0.1,-0.1,0.0,-0.12,0.01,0.98,0.99997,0.00037,0.00000,0.00040,0.055,0.0190
2026,4,7,13:00:30.144,-0.700,205,0.0,-0.2,0.0,-0.12,0.01,0.99,0.99997,0.00037,0.00000,0.00040,0.055,0.0230
2026,4,7,13:00:30.146,-0.698,207,0.0,0.0,-0.1,-0.12,0.01,0.99,0.99997,0.00037,0.00000,0.00040,0.055,0.0250
2026,4,7,13:00:30.148,-0.696,209,0.0,0.0,0.0,-0.12,0.01,0.99,0.99997,0.00037,0.00000,0.00040,0.055,0.0300
2026,4,7,13:00:30.150,-0.694,211,0.0,-0.1,-0.1,-0.11,0.01,0.99,0.99997,0.00037,-0.00003,0.00040,0.055,0.0310
2026,4,7,13:00:30.152,-0.692,213,0.0,-0.1,-0.1,-0.11,0.01,0.99,0.99997,0.00037,-0.00003,0.00040,0.055,0.0300
2026,4,7,13:00:30.154,-0.690,215,0.0,-0.1,0.0,-0.11,0.01,0.99,0.99997,0.00037,-0.00003,0.00040,0.055,0.0280
2026,4,7,13:00:30.156,-0.688,217,0.0,-0.1,-0.1,-0.11,0.01,0.99,0.99997,0.00037,-0.00003,0.00040,0.055,0.0260
2026,4,7,13:00:30.158,-0.686,219,0.0,-0.1,0.0,-0.11,0.01,0.99,0.99997,0.00037,-0.00003,0.00040,0.055,0.0220
2026,4,7,13:00:30.160,-0.684,221,0.0,-0.1,-0.1,-0.11,0.01,0.99,0.99997,0.00037,-0.00003,0.00040,0.055,0.0230
2026,4,7,13:00:30.162,-0.682,223,0.0,-0.1,-0.1,-0.11,0.01,0.99,0.99997,0.00037,-0.00003,0.00040,0.055,0.0260
2026,4,7,13:00:30.164,-0.680,225,-0.1,-0.1,0.0,-0.11,0.01,0.99,0.99997,0.00037,-0.00003,0.00040,0.055,0.0230
2026,4,7,13:00:30.166,-0.678,227,-0.1,0.0,-0.1,-0.11,0.01,0.99,0.99997,0.00037,-0.00003,0.00037,0.055,0.0260
2026,4,7,13:00:30.168,-0.676,229,0.0,0.0,-0.1,-0.11,0.01,0.98,0.99997,0.00037,-0.00003,0.00037,0.055,0.0190
2026,4,7,13:00:30.170,-0.674,231,0.0,-0.1,0.0,-0.11,0.01,0.99,0.99997,0.00037,-0.00003,0.00037,0.055,0.0190
2026,4,7,13:00:30.172,-0.672,233,-0.1,0.0,-0.1,-0.11,0.01,0.99,0.99997,0.00033,-0.00003,0.00037,0.055,0.0280
2026,4,7,13:00:30.174,-0.670,235,-0.1,-0.1,0.0,-0.11,0.01,0.99,0.99997,0.00033,-0.00003,0.00037,0.055,0.0220
2026,4,7,13:00:30.176,-0.668,237,-0.1,0.0,0.0,-0.11,0.01,0.99,0.99997,0.00033,-0.00003,0.00037,0.055,0.0280
2026,4,7,13:00:30.178,-0.666,239,0.0,-0.1,0.0,-0.11,0.01,0.99,0.99997,0.00033,-0.00003,0.00037,0.055,0.0330
2026,4,7,13:00:30.180,-0.664,241,-0.1,-0.1,0.0,-0.11,0.01,0.99,0.99997,0.00033,-0.00003,0.00037,0.055,0.0280
2026,4,7,13:00:30.182,-0.662,243,0.0,-0.1,0.0,-0.11,0.01,0.99,0.99997,0.00033,-0.00003,0.00037,0.055,0.0250
2026,4,7,13:00:30.184,-0.660,245,-0.1,0.0,0.0,-0.11,0.01,0.98,0.99997,0.00033,-0.00003,0.00037,0.055,0.0260
2026,4,7,13:00:30.186,-0.658,247,-0.3,-0.1,0.0,-0.12,0.01,0.99,0.99997,0.00033,-0.00003,0.00037,0.055,0.0260
2026,4,7,13:00:30.188,-0.656,249,-0.3,-0.1,0.0,-0.11,0.00,0.98,0.99997,0.00033,-0.00007,0.00037,0.055,0.0190
2026,4,7,13:00:30.190,-0.654,1,-0.1,-0.1,0.0,-0.12,0.01,0.99,0.99997,0.00033,-0.00007,0.00037,0.055,0.0260
2026,4,7,13:00:30.192,-0.652,3,-0.1,-0.1,0.0,-0.12,0.01,0.99,0.99997,0.00030,-0.00007,0.00037,0.056,0.0280
2026,4,7,13:00:30.194,-0.650,5,-0.1,0.0,0.0,-0.11,0.01,0.99,0.99997,0.00030,-0.00007,0.00037,0.055,0.0310
2026,4,7,13:00:30.196,-0.648,7,0.0,-0.1,0.0,-0.12,0.01,0.99,0.99997,0.00030,-0.00007,0.00037,0.055,0.0280
2026,4,7,13:00:30.198,-0.646,9,0.0,-0.1,0.0,-0.11,0.01,0.99,0.99997,0.00030,-0.00007,0.00037,0.055,0.0280
2026,4,7,13:00:30.200,-0.644,11,-0.1,-0.1,0.0,-0.11,0.01,0.99,0.99997,0.00030,-0.00007,0.00037,0.055,0.0280
2026,4,7,13:00:30.202,-0.642,13,-0.1,0.0,-0.1,-0.12,0.01,0.99,0.99997,0.00030,-0.00007,0.00037,0.055,0.0280
2026,4,7,13:00:30.204,-0.640,15,0.0,-0.1,-0.1,-0.11,0.01,0.99,0.99997,0.00030,-0.00007,0.00037,0.055,0.0280
2026,4,7,13:00:30.206,-0.638,17,-0.1,-0.1,-0.1,-0.11,0.01,0.99,0.99997,0.00030,-0.00007,0.00033,0.055,0.0300
2026,4,7,13:00:30.208,-0.636,19,-0.1,-0.1,-0.1,-0.12,0.01,0.99,0.99997,0.00030,-0.00007,0.00033,0.055,0.0330
2026,4,7,13:00:30.210,-0.634,21,-0.1,-0.1,-0.1,-0.11,0.01,0.99,0.99997,0.00030,-0.00007,0.00033,0.055,0.0190
2026,4,7,13:00:30.212,-0.632,23,-0.1,-0.1,-0.1,-0.11,0.01,0.99,0.99997,0.00030,-0.00007,0.00033,0.055,0.0260
2026,4,7,13:00:30.214,-0.630,25,-0.1,-0.1,-0.3,-0.11,0.00,0.98,0.99997,0.00030,-0.00007,0.00033,0.055,0.0250
2026,4,7,13:00:30.216,-0.628,27,-0.3,-0.1,-0.3,-0.11,0.01,0.99,0.99997,0.00027,-0.00007,0.00033,0.055,0.0300
2026,4,7,13:00:30.218,-0.626,29,-0.1,-0.1,-0.3,-0.11,0.01,0.98,0.99997,0.00027,-0.00007,0.00033,0.055,0.0250
2026,4,7,13:00:30.220,-0.624,31,-0.1,0.0,-0.3,-0.11,0.01,0.99,0.99997,0.00027,-0.00007,0.00030,0.055,0.0310
2026,4,7,13:00:30.222,-0.622,33,-0.1,0.0,-0.3,-0.11,0.01,0.99,0.99997,0.00027,-0.00007,0.00030,0.055,0.0220
2026,4,7,13:00:30.224,-0.620,35,-0.1,0.0,-0.3,-0.11,0.01,0.99,0.99997,0.00027,-0.00007,0.00030,0.055,0.0230
2026,4,7,13:00:30.226,-0.618,37,-0.1,0.0,-0.3,-0.11,0.01,0.99,0.99997,0.00027,-0.00007,0.00030,0.055,0.0310
2026,4,7,13:00:30.228,-0.616,39,-0.1,-0.1,-0.3,-0.11,0.01,0.99,0.99997,0.00027,-0.00010,0.00030,0.055,0.0200
2026,4,7,13:00:30.230,-0.614,41,-0.1,-0.1,-0.3,-0.11,0.01,0.99,0.99997,0.00027,-0.00010,0.00030,0.055,0.0250
2026,4,7,13:00:30.232,-0.612,43,-0.1,-0.1,-0.3,-0.11,0.00,0.98,0.99997,0.00027,-0.00010,0.00027,0.055,0.0200
2026,4,7,13:00:30.234,-0.610,45,-0.3,0.0,-0.3,-0.11,0.01,0.99,0.99997,0.00027,-0.00010,0.00027,0.055,0.0310
2026,4,7,13:00:30.236,-0.608,47,-0.1,0.0,-0.3,-0.11,0.00,0.98,0.99997,0.00023,-0.00010,0.00027,0.055,0.0230
2026,4,7,13:00:30.238,-0.606,49,-0.3,-0.1,-0.3,-0.11,0.01,0.99,0.99997,0.00023,-0.00010,0.00027,0.055,0.0300
2026,4,7,13:00:30.240,-0.604,51,0.0,0.0,-0.3,-0.10,0.00,0.99,0.99997,0.00023,-0.00010,0.00027,0.055,0.0250
2026,4,7,13:00:30.242,-0.602,53,-0.1,0.0,-0.3,-0.11,0.01,0.99,0.99997,0.00023,-0.00010,0.00027,0.055,0.0340
2026,4,7,13:00:30.244,-0.600,55,-0.1,0.0,-0.1,-0.11,0.01,0.99,0.99997,0.00023,-0.00010,0.00023,0.055,0.0330
2026,4,7,13:00:30.246,-0.598,57,-0.1,-0.1,-0.3,-0.11,0.01,0.99,0.99997,0.00023,-0.00010,0.00023,0.055,0.0310
2026,4,7,13:00:30.248,-0.596,59,-0.1,0.1,-0.4,-0.11,0.01,0.99,0.99997,0.00023,-0.00010,0.00023,0.056,0.0280
2026,4,7,13:00:30.250,-0.594,61,-0.1,0.0,-0.4,-0.11,0.01,0.99,0.99997,0.00023,-0.00010,0.00023,0.055,0.0390
2026,4,7,13:00:30.252,-0.592,63,0.0,0.0,-0.4,-0.11,0.00,0.99,0.99997,0.00023,-0.00010,0.00023,0.055,0.0230
2026,4,7,13:00:30.254,-0.590,65,-0.1,0.0,-0.3,-0.11,0.00,0.98,0.99997,0.00023,-0.00010,0.00020,0.055,0.0280
2026,4,7,13:00:30.256,-0.588,67,-0.1,0.0,-0.3,-0.11,0.01,0.99,0.99997,0.00023,-0.00010,0.00020,0.056,0.0230
2026,4,7,13:00:30.258,-0.586,69,-0.1,0.0,-0.3,-0.11,0.00,0.99,0.99997,0.00020,-0.00010,0.00020,0.055,0.0250
2026,4,7,13:00:30.260,-0.584,71,-0.1,0.0,-0.3,-0.11,0.00,0.99,0.99997,0.00020,-0.00010,0.00020,0.055,0.0360
2026,4,7,13:00:30.262,-0.582,73,-0.1,-0.1,-0.4,-0.11,0.00,0.99,0.99997,0.00020,-0.00010,0.00020,0.055,0.0280
2026,4,7,13:00:30.264,-0.580,75,0.0,0.0,-0.3,-0.11,0.01,0.98,0.99997,0.00020,-0.00010,0.00017,0.055,0.0340
2026,4,7,13:00:30.266,-0.578,77,-0.1,-0.1,-0.3,-0.11,0.01,1.00,0.99997,0.00020,-0.00010,0.00017,0.055,0.0280
2026,4,7,13:00:30.268,-0.576,79,0.0,-0.1,-0.3,-0.11,0.00,0.98,0.99997,0.00020,-0.00010,0.00017,0.055,0.0300
2026,4,7,13:00:30.270,-0.574,81,-0.1,0.0,-0.3,-0.11,0.01,0.99,0.99997,0.00020,-0.00010,0.00017,0.055,0.0250
2026,4,7,13:00:30.272,-0.572,83,-0.1,-0.1,-0.3,-0.11,0.00,0.99,0.99997,0.00020,-0.00010,0.00017,0.055,0.0230
2026,4,7,13:00:30.274,-0.570,85,-0.3,0.0,-0.3,-0.11,0.00,0.99,1.00000,0.00020,-0.00010,0.00017,0.055,0.0330
2026,4,7,13:00:30.276,-0.568,87,-0.1,0.0,-0.3,-0.11,0.01,0.99,1.00000,0.00020,-0.00010,0.00013,0.055,0.0330
2026,4,7,13:00:30.278,-0.566,89,-0.1,0.0,-0.3,-0.11,0.00,0.99,1.00000,0.00020,-0.00010,0.00013,0.055,0.0230
2026,4,7,13:00:30.280,-0.564,91,-0.1,0.0,-0.3,-0.11,0.01,0.99,1.00000,0.00017,-0.00010,0.00013,0.055,0.0380
2026,4,7,13:00:30.282,-0.562,93,-0.3,-0.1,-0.3,-0.11,0.00,0.99,1.00000,0.00017,-0.00010,0.00013,0.055,0.0330
2026,4,7,13:00:30.284,-0.560,95,-0.1,-0.1,-0.3,-0.11,0.00,0.99,1.00000,0.00017,-0.00010,0.00013,0.055,0.0280
2026,4,7,13:00:30.286,-0.558,97,-0.3,0.0,-0.1,-0.11,0.01,0.98,1.00000,0.00017,-0.00010,0.00013,0.055,0.0360
2026,4,7,13:00:30.288,-0.556,99,-0.1,0.0,-0.1,-0.11,0.00,0.99,1.00000,0.00017,-0.00010,0.00010,0.055,0.0200
2026,4,7,13:00:30.290,-0.554,101,-0.1,0.0,-0.1,-0.11,0.00,0.98,1.00000,0.00017,-0.00010,0.00010,0.055,0.0260
2026,4,7,13:00:30.292,-0.552,103,-0.3,0.0,0.0,-0.11,0.00,0.99,1.00000,0.00017,-0.00010,0.00010,0.055,0.0410
2026,4,7,13:00:30.294,-0.550,105,-0.1,0.0,-0.3,-0.11,0.00,0.99,1.00000,0.00017,-0.00010,0.00010,0.055,0.0300
2026,4,7,13:00:30.296,-0.548,107,-0.3,0.0,-0.1,-0.11,0.01,0.99,1.00000,0.00013,-0.00010,0.00010,0.055,0.0360
2026,4,7,13:00:30.298,-0.546,109,-0.1,0.0,-0.1,-0.11,0.00,0.99,1.00000,0.00013,-0.00010,0.00010,0.055,0.0340
2026,4,7,13:00:30.300,-0.544,111,-0.1,0.0,-0.1,-0.11,0.00,0.99,1.00000,0.00013,-0.00010,0.00010,0.055,0.0330
2026,4,7,13:00:30.302,-0.542,113,-0.3,0.1,-0.1,-0.11,0.00,0.99,1.00000,0.00013,-0.00010,0.00010,0.055,0.0250
2026,4,7,13:00:30.304,-0.540,115,-0.3,0.0,-0.1,-0.11,0.00,0.98,1.00000,0.00013,-0.00010,0.00010,0.056,0.0310
2026,4,7,13:00:30.306,-0.538,117,-0.1,-0.1,-0.1,-0.11,0.00,0.99,1.00000,0.00013,-0.00010,0.00010,0.055,0.0310
2026,4,7,13:00:30.308,-0.536,119,-0.3,0.1,-0.1,-0.11,0.00,0.99,1.00000,0.00013,-0.00010,0.00007,0.055,0.0260
2026,4,7,13:00:30.310,-0.534,121,0.0,0.1,-0.1,-0.11,0.00,0.99,1.00000,0.00013,-0.00010,0.00007,0.055,0.0260
2026,4,7,13:00:30.312,-0.532,123,-0.1,0.1,-0.1,-0.11,0.00,0.99,1.00000,0.00000,0.00000,0.00000,0.055,0.0280
2026,4,7,13:00:30.314,-0.530,125,-0.1,0.1,0.0,-0.11,0.00,0.99,1.00000,0.00000,0.00000,0.00000,0.055,0.0220
2026,4,7,13:00:30.316,-0.528,127,-0.1,0.1,-0.1,-0.11,0.00,0.99,1.00000,0.00000,0.00000,0.00000,0.055,0.0200
2026,4,7,13:00:30.318,-0.526,129,-0.1,0.1,-0.1,-0.11,0.00,0.99,1.00000,0.00000,0.00000,0.00000,0.055,0.0250
2026,4,7,13:00:30.320,-0.524,131,-0.3,0.0,0.0,-0.11,0.00,0.99,1.00000,0.00000,0.00000,0.00000,0.055,0.0250
2026,4,7,13:00:30.322,-0.522,133,0.0,0.1,-0.1,-0.11,0.00,0.99,1.00000,0.00000,0.00000,0.00000,0.055,0.0280
2026,4,7,13:00:30.324,-0.520,135,0.0,0.0,-0.1,-0.11,0.00,0.98,1.00000,0.00000,0.00000,0.00000,0.055,0.0260
2026,4,7,13:00:30.326,-0.518,137,-0.1,0.0,-0.1,-0.11,0.00,0.98,1.00000,0.00000,0.00000,0.00000,0.055,0.0230
2026,4,7,13:00:30.328,-0.516,139,-0.1,0.0,-0.3,-0.11,0.00,0.99,1.00000,0.00000,0.00000,0.00000,0.055,0.0260
2026,4,7,13:00:30.330,-0.514,141,-0.1,0.1,-0.1,-0.11,0.00,0.99,1.00000,0.00000,0.00000,0.00000,0.055,0.0300
2026,4,7,13:00:30.332,-0.512,143,-0.1,0.0,-0.1,-0.11,0.00,0.99,1.00000,0.00000,0.00000,-0.00003,0.055,0.0360
2026,4,7,13:00:30.334,-0.510,145,-0.1,0.0,-0.1,-0.11,0.00,0.99,1.00000,-0.00003,0.00000,-0.00003,0.055,0.0260
2026,4,7,13:00:30.336,-0.508,147,-0.1,0.1,-0.1,-0.11,0.00,0.99,1.00000,-0.00003,0.00000,-0.00003,0.055,0.0260
2026,4,7,13:00:30.338,-0.506,149,0.0,0.0,-0.1,-0.12,0.00,0.99,1.00000,-0.00003,0.00000,-0.00003,0.055,0.0300
2026,4,7,13:00:30.340,-0.504,151,0.0,0.1,-0.1,-0.10,0.00,0.99,1.00000,-0.00003,0.00000,-0.00003,0.055,0.0220
2026,4,7,13:00:30.342,-0.502,153,-0.1,0.0,-0.1,-0.11,0.00,0.99,1.00000,-0.00003,0.00000,-0.00003,0.055,0.0230
2026,4,7,13:00:30.344,-0.500,155,0.0,0.1,-0.1,-0.11,0.00,0.99,1.00000,-0.00003,0.00000,-0.00003,0.055,0.0340
2026,4,7,13:00:30.346,-0.498,157,0.0,0.0,-0.1,-0.11,0.00,0.99,1.00000,-0.00003,0.00000,-0.00003,0.055,0.0250
2026,4,7,13:00:30.348,-0.496,159,-0.1,0.0,-0.1,-0.11,0.00,0.99,1.00000,-0.00003,0.00000,-0.00003,0.055,0.0360
2026,4,7,13:00:30.350,-0.494,161,-0.1,0.0,-0.3,-0.11,0.00,0.98,1.00000,-0.00003,0.00000,-0.00007,0.055,0.0300
2026,4,7,13:00:30.352,-0.492,163,-0.1,0.0,-0.3,-0.12,0.00,0.99,1.00000,-0.00003,0.00000,-0.00007,0.055,0.0300
2026,4,7,13:00:30.354,-0.490,165,-0.1,0.0,-0.3,-0.11,0.00,0.99,1.00000,-0.00003,0.00000,-0.00007,0.055,0.0260
2026,4,7,13:00:30.356,-0.488,167,-0.1,0.0,-0.1,-0.11,0.00,0.99,1.00000,-0.00003,0.00000,-0.00007,0.055,0.0330
2026,4,7,13:00:30.358,-0.486,169,-0.1,0.0,-0.3,-0.11,0.00,0.99,1.00000,-0.00003,0.00000,-0.00007,0.055,0.0330
2026,4,7,13:00:30.360,-0.484,171,0.0,0.0,0.0,-0.11,0.00,0.99,1.00000,-0.00003,0.00000,-0.00007,0.055,0.0310
2026,4,7,13:00:30.362,-0.482,173,0.0,0.0,-0.1,-0.11,0.01,0.99,1.00000,-0.00003,0.00000,-0.00007,0.055,0.0340
2026,4,7,13:00:30.364,-0.480,175,-0.1,0.0,-0.1,-0.11,0.00,0.99,1.00000,-0.00007,0.00000,-0.00007,0.055,0.0260
2026,4,7,13:00:30.366,-0.478,177,0.0,0.0,-0.1,-0.11,0.00,0.98,1.00000,-0.00007,0.00000,-0.00010,0.055,0.0340
2026,4,7,13:00:30.368,-0.476,179,0.0,0.0,-0.1,-0.11,0.01,0.99,1.00000,-0.00007,0.00000,-0.00010,0.056,0.0310
2026,4,7,13:00:30.370,-0.474,181,0.0,0.0,-0.1,-0.11,0.00,0.98,1.00000,-0.00007,0.00000,-0.00010,0.055,0.0300
2026,4,7,13:00:30.372,-0.472,183,-0.1,0.0,0.0,-0.11,0.00,0.99,1.00000,-0.00007,0.00000,-0.00010,0.055,0.0300
2026,4,7,13:00:30.374,-0.470,185,-0.1,0.0,0.0,-0.11,0.00,0.99,1.00000,-0.00007,0.00000,-0.00010,0.055,0.0300
2026,4,7,13:00:30.376,-0.468,187,-0.1,0.1,0.0,-0.11,0.00,0.98,1.00000,-0.00007,0.00000,-0.00010,0.056,0.0360
2026,4,7,13:00:30.378,-0.466,189,-0.1,0.0,0.0,-0.11,0.00,0.98,1.00000,-0.00007,0.00000,-0.00010,0.055,0.0340
2026,4,7,13:00:30.380,-0.464,191,0.0,0.1,-0.1,-0.11,0.00,0.99,1.00000,-0.00007,0.00000,-0.00010,0.055,0.0310
2026,4,7,13:00:30.382,-0.462,193,-0.1,0.0,-0.1,-0.11,0.00,0.99,1.00000,-0.00007,0.00000,-0.00010,0.055,0.0280
2026,4,7,13:00:30.384,-0.460,195,-0.1,0.0,0.0,-0.11,0.00,0.99,1.00000,-0.00007,0.00000,-0.00010,0.055,0.0310
2026,4,7,13:00:30.386,-0.458,197,0.0,0.1,0.0,-0.11,0.00,0.99,1.00000,-0.00007,0.00000,-0.00010,0.055,0.0260
2026,4,7,13:00:30.388,-0.456,199,0.0,0.1,0.0,-0.12,0.00,0.99,1.00000,-0.00007,0.00000,-0.00010,0.055,0.0380
2026,4,7,13:00:30.390,-0.454,201,0.0,0.1,-0.1,-0.11,0.00,0.99,1.00000,-0.00007,0.00003,-0.00010,0.055,0.0220
2026,4,7,13:00:30.392,-0.452,203,0.0,0.1,0.0,-0.12,0.00,0.99,1.00000,-0.00007,0.00003,-0.00010,0.055,0.0330
2026,4,7,13:00:30.394,-0.450,205,0.0,0.1,-0.1,-0.12,0.00,0.98,1.00000,-0.00007,0.00003,-0.00010,0.055,0.0250
2026,4,7,13:00:30.396,-0.448,207,0.0,0.1,0.0,-0.12,0.00,0.99,1.00000,-0.00007,0.00003,-0.00010,0.055,0.0230
2026,4,7,13:00:30.398,-0.446,209,0.0,0.1,-0.1,-0.11,0.00,0.99,1.00000,-0.00007,0.00003,-0.00010,0.055,0.0220
2026,4,7,13:00:30.400,-0.444,211,0.0,0.1,0.0,-0.12,0.00,0.98,1.00000,-0.00007,0.00003,-0.00013,0.055,0.0260
2026,4,7,13:00:30.402,-0.442,213,0.0,0.1,0.0,-0.11,0.00,0.99,1.00000,-0.00007,0.00003,-0.00013,0.055,0.0250
2026,4,7,13:00:30.404,-0.440,215,0.0,0.1,-0.1,-0.11,0.00,0.98,1.00000,-0.00007,0.00003,-0.00013,0.055,0.0300
2026,4,7,13:00:30.406,-0.438,217,0.0,0.1,0.0,-0.12,0.00,0.98,1.00000,-0.00007,0.00003,-0.00013,0.055,0.0190
2026,4,7,13:00:30.408,-0.436,219,0.0,0.1,0.0,-0.11,0.00,0.99,1.00000,-0.00007,0.00003,-0.00013,0.055,0.0220
2026,4,7,13:00:30.410,-0.434,221,0.0,0.1,0.0,-0.11,0.00,0.98,1.00000,-0.00007,0.00003,-0.00013,0.055,0.0260
2026,4,7,13:00:30.412,-0.432,223,-0.1,0.1,0.0,-0.11,0.00,0.99,1.00000,-0.00007,0.00003,-0.00013,0.055,0.0300
2026,4,7,13:00:30.414,-0.430,225,0.0,0.1,0.0,-0.12,0.00,0.99,1.00000,-0.00007,0.00003,-0.00013,0.055,0.0300
2026,4,7,13:00:30.416,-0.428,227,0.0,0.1,0.0,-0.11,0.00,0.99,1.00000,-0.00007,0.00003,-0.00013,0.055,0.0300
2026,4,7,13:00:30.418,-0.426,229,0.0,0.1,0.0,-0.11,0.00,0.98,1.00000,-0.00007,0.00007,-0.00013,0.055,0.0230
2026,4,7,13:00:30.420,-0.424,231,0.0,0.0,0.0,-0.11,0.00,0.99,1.00000,-0.00007,0.00007,-0.00013,0.055,0.0260
2026,4,7,13:00:30.422,-0.422,233,0.0,-0.1,0.0,-0.12,0.00,0.99,1.00000,-0.00007,0.00003,-0.00013,0.055,0.0250
2026,4,7,13:00:30.424,-0.420,235,0.0,0.0,0.0,-0.11,0.00,0.99,1.00000,-0.00007,0.00003,-0.00013,0.056,0.0300
2026,4,7,13:00:30.426,-0.418,237,0.0,0.1,0.0,-0.11,0.00,0.99,1.00000,-0.00007,0.00007,-0.00013,0.055,0.0310
2026,4,7,13:00:30.428,-0.416,239,0.0,0.1,0.0,-0.11,0.00,0.99,1.00000,-0.00007,0.00007,-0.00013,0.055,0.0310
2026,4,7,13:00:30.430,-0.414,241,0.0,0.0,0.0,-0.12,0.00,0.99,1.00000,-0.00007,0.00007,-0.00013,0.055,0.0310
2026,4,7,13:00:30.432,-0.412,243,0.0,0.0,0.0,-0.11,0.00,0.99,1.00000,-0.00007,0.00007,-0.00013,0.055,0.0250
2026,4,7,13:00:30.434,-0.410,245,0.0,0.0,0.0,-0.12,0.00,0.99,1.00000,-0.00007,0.00007,-0.00013,0.055,0.0200
2026,4,7,13:00:30.436,-0.408,247,0.0,0.1,0.0,-0.11,0.00,0.99,1.00000,-0.00007,0.00007,-0.00013,0.055,0.0280
2026,4,7,13:00:30.438,-0.406,249,0.0,0.0,0.0,-0.11,0.00,0.98,1.00000,-0.00007,0.00007,-0.00013,0.055,0.0220
2026,4,7,13:00:30.440,-0.404,1,0.0,0.0,0.0,-0.12,0.00,0.99,1.00000,-0.00007,0.00007,-0.00013,0.056,0.0300
2026,4,7,13:00:30.442,-0.402,3,0.0,0.0,0.0,-0.11,0.00,0.99,1.00000,-0.00007,0.00007,-0.00013,0.055,0.0280
2026,4,7,13:00:30.444,-0.400,5,0.0,0.1,0.0,-0.11,0.00,0.99,1.00000,-0.00007,0.00007,-0.00013,0.055,0.0300
2026,4,7,13:00:30.446,-0.398,7,0.0,0.1,0.0,-0.11,0.00,0.99,1.00000,-0.00007,0.00007,-0.00013,0.055,0.0340
2026,4,7,13:00:30.448,-0.396,9,0.0,0.0,0.0,-0.12,0.00,0.98,1.00000,-0.00007,0.00007,-0.00013,0.055,0.0340
2026,4,7,13:00:30.450,-0.394,11,0.0,0.1,0.0,-0.12,0.00,0.99,1.00000,-0.00007,0.00007,-0.00013,0.055,0.0310
2026,4,7,13:00:30.452,-0.392,13,0.0,0.1,0.0,-0.11,0.00,0.98,1.00000,-0.00007,0.00007,-0.00013,0.055,0.0220
2026,4,7,13:00:30.454,-0.390,15,0.0,0.1,0.0,-0.12,0.01,0.99,1.00000,-0.00007,0.00007,-0.00013,0.055,0.0230
2026,4,7,13:00:30.456,-0.388,17,0.0,0.1,0.0,-0.11,0.00,0.99,1.00000,-0.00007,0.00007,-0.00013,0.055,0.0300
2026,4,7,13:00:30.458,-0.386,19,0.0,0.0,0.0,-0.11,0.00,0.99,1.00000,-0.00007,0.00007,-0.00013,0.055,0.0330
2026,4,7,13:00:30.460,-0.384,21,0.0,0.1,0.2,-0.12,0.00,0.98,1.00000,-0.00007,0.00007,-0.00013,0.055,0.0260
2026,4,7,13:00:30.462,-0.382,23,0.0,0.0,0.0,-0.11,0.00,0.98,1.00000,-0.00007,0.00007,-0.00013,0.055,0.0260
2026,4,7,13:00:30.464,-0.380,25,0.0,0.1,0.2,-0.11,0.00,0.98,1.00000,-0.00007,0.00007,-0.00010,0.055,0.0260
2026,4,7,13:00:30.466,-0.378,27,0.0,0.0,0.0,-0.13,0.00,0.98,1.00000,-0.00007,0.00007,-0.00010,0.055,0.0390
2026,4,7,13:00:30.468,-0.376,29,0.0,0.1,0.2,-0.12,0.00,0.99,1.00000,-0.00007,0.00007,-0.00010,0.055,0.0230
2026,4,7,13:00:30.470,-0.374,31,0.0,0.1,0.3,-0.12,0.00,0.98,1.00000,-0.00007,0.00007,-0.00010,0.055,0.0200
2026,4,7,13:00:30.472,-0.372,33,0.2,0.1,0.2,-0.12,0.00,0.99,1.00000,-0.00003,0.00010,-0.00010,0.055,0.0300
2026,4,7,13:00:30.474,-0.370,35,0.0,0.0,0.2,-0.11,0.00,0.98,1.00000,-0.00003,0.00010,-0.00010,0.055,0.0330
2026,4,7,13:00:30.476,-0.368,37,0.0,0.1,0.2,-0.12,0.00,0.97,1.00000,-0.00003,0.00010,-0.00010,0.055,0.0310
2026,4,7,13:00:30.478,-0.366,39,0.0,0.1,0.2,-0.12,0.00,0.99,1.00000,-0.00003,0.00010,-0.00010,0.055,0.0260
2026,4,7,13:00:30.480,-0.364,41,0.0,0.0,0.2,-0.12,0.00,0.98,1.00000,-0.00003,0.00010,-0.00007,0.055,0.0220
2026,4,7,13:00:30.482,-0.362,43,0.0,0.0,0.2,-0.12,0.00,0.99,1.00000,-0.00003,0.00010,-0.00007,0.055,0.0330
2026,4,7,13:00:30.484,-0.360,45,0.0,0.1,0.0,-0.12,0.00,0.99,1.00000,-0.00003,0.00010,-0.00007,0.055,0.0250
2026,4,7,13:00:30.486,-0.358,47,0.0,0.0,0.2,-0.12,0.00,0.98,1.00000,-0.00003,0.00010,-0.00007,0.055,0.0300
2026,4,7,13:00:30.488,-0.356,49,0.0,0.1,0.0,-0.12,0.00,1.00,1.00000,-0.00003,0.00010,-0.00007,0.055,0.0220
2026,4,7,13:00:30.490,-0.354,51,0.0,0.0,0.0,-0.11,0.00,0.98,1.00000,-0.00003,0.00010,-0.00007,0.056,0.0310
2026,4,7,13:00:30.492,-0.352,53,0.0,0.0,0.0,-0.12,0.01,0.99,1.00000,-0.00003,0.00010,-0.00007,0.055,0.0260
2026,4,7,13:00:30.494,-0.350,55,0.2,0.1,0.0,-0.11,0.00,0.99,1.00000,-0.00003,0.00010,-0.00007,0.055,0.0310
2026,4,7,13:00:30.496,-0.348,57,0.2,0.1,0.0,-0.12,0.00,0.99,1.00000,-0.00003,0.00010,-0.00007,0.055,0.0280
2026,4,7,13:00:30.498,-0.346,59,0.0,0.0,0.0,-0.12,0.01,0.99,1.00000,-0.00003,0.00010,-0.00007,0.055,0.0260
2026,4,7,13:00:30.500,-0.344,61,0.0,0.1,0.0,-0.11,0.00,0.99,1.00000,-0.00003,0.00010,-0.00007,0.055,0.0310
2026,4,7,13:00:30.502,-0.342,63,0.2,0.1,0.0,-0.11,0.00,0.98,1.00000,0.00000,0.00010,-0.00007,0.055,0.0340
2026,4,7,13:00:30.504,-0.340,65,0.2,0.1,0.0,-0.12,0.00,0.99,1.00000,0.00000,0.00010,-0.00007,0.055,0.0330
2026,4,7,13:00:30.506,-0.338,67,0.2,0.0,0.0,-0.11,0.00,0.98,1.00000,0.00000,0.00010,-0.00007,0.055,0.0300
2026,4,7,13:00:30.508,-0.336,69,0.2,0.1,0.0,-0.12,0.01,0.99,1.00000,0.00000,0.00010,-0.00007,0.055,0.0200
2026,4,7,13:00:30.510,-0.334,71,0.0,0.1,-0.1,-0.11,0.00,0.99,1.00000,0.00000,0.00010,-0.00007,0.055,0.0280
2026,4,7,13:00:30.512,-0.332,73,0.2,0.0,0.0,-0.11,0.00,0.98,1.00000,0.00000,0.00010,-0.00007,0.055,0.0250
2026,4,7,13:00:30.514,-0.330,75,0.0,0.1,0.0,-0.12,0.00,0.99,1.00000,0.00000,0.00010,-0.00007,0.055,0.0220
2026,4,7,13:00:30.516,-0.328,77,0.2,0.1,-0.1,-0.11,0.00,0.99,1.00000,0.00000,0.00010,-0.00007,0.055,0.0280
2026,4,7,13:00:30.518,-0.326,79,0.0,0.0,0.0,-0.12,0.00,0.98,1.00000,0.00000,0.00010,-0.00007,0.055,0.0360
2026,4,7,13:00:30.520,-0.324,81,0.0,0.0,0.0,-0.10,0.00,0.99,1.00000,0.00000,0.00010,-0.00007,0.055,0.0300
2026,4,7,13:00:30.522,-0.322,83,0.2,0.0,0.0,-0.12,0.00,0.98,1.00000,0.00000,0.00010,-0.00007,0.055,0.0250
2026,4,7,13:00:30.524,-0.320,85,0.2,0.0,0.0,-0.11,0.01,1.00,1.00000,0.00000,0.00010,-0.00007,0.055,0.0280
2026,4,7,13:00:30.526,-0.318,87,0.0,0.0,0.0,-0.11,0.00,0.98,1.00000,0.00000,0.00010,-0.00007,0.055,0.0220
2026,4,7,13:00:30.528,-0.316,89,0.2,0.0,0.0,-0.12,0.00,1.00,1.00000,0.00000,0.00010,-0.00007,0.055,0.0250
2026,4,7,13:00:30.530,-0.314,91,0.0,0.0,0.0,-0.12,0.00,0.99,1.00000,0.00000,0.00010,-0.00007,0.055,0.0220
2026,4,7,13:00:30.532,-0.312,93,0.0,0.1,0.0,-0.11,0.01,0.98,1.00000,0.00000,0.00013,-0.00007,0.055,0.0280
2026,4,7,13:00:30.534,-0.310,95,0.0,0.0,0.0,-0.12,0.00,0.99,1.00000,0.00000,0.00013,-0.00007,0.055,0.0310
2026,4,7,13:00:30.536,-0.308,97,0.2,0.1,0.2,-0.12,0.00,0.97,1.00000,0.00000,0.00013,-0.00007,0.055,0.0340
2026,4,7,13:00:30.538,-0.306,99,0.0,0.0,0.2,-0.11,0.01,0.99,1.00000,0.00000,0.00013,-0.00007,0.055,0.0330
2026,4,7,13:00:30.540,-0.304,101,0.2,0.0,0.2,-0.12,0.00,1.00,1.00000,0.00000,0.00013,-0.00007,0.055,0.0300
2026,4,7,13:00:30.542,-0.302,103,0.2,0.0,0.2,-0.12,0.00,0.98,1.00000,0.00000,0.00013,-0.00007,0.055,0.0250
2026,4,7,13:00:30.544,-0.300,105,0.2,0.0,0.2,-0.11,0.01,0.98,1.00000,0.00003,0.00013,-0.00007,0.055,0.0200
2026,4,7,13:00:30.546,-0.298,107,0.0,-0.1,0.3,-0.12,0.00,0.98,1.00000,0.00003,0.00013,-0.00003,0.055,0.0280
2026,4,7,13:00:30.548,-0.296,109,0.2,0.0,0.3,-0.12,0.00,0.99,1.00000,0.00003,0.00013,-0.00003,0.055,0.0220
2026,4,7,13:00:30.550,-0.294,111,0.2,0.1,0.3,-0.11,0.00,0.98,1.00000,0.00003,0.00013,-0.00003,0.055,0.0200
2026,4,7,13:00:30.552,-0.292,113,0.2,0.1,0.3,-0.11,0.00,0.99,1.00000,0.00003,0.00013,-0.00003,0.055,0.0230
2026,4,7,13:00:30.554,-0.290,115,0.2,0.0,0.5,-0.12,0.01,0.99,1.00000,0.00003,0.00013,-0.00003,0.055,0.0260
2026,4,7,13:00:30.556,-0.288,117,0.0,0.0,0.5,-0.12,0.01,0.98,1.00000,0.00003,0.00013,0.00000,0.055,0.0300
2026,4,7,13:00:30.558,-0.286,119,0.0,0.0,0.5,-0.11,0.00,0.99,1.00000,0.00003,0.00013,0.00000,0.055,0.0330
2026,4,7,13:00:30.560,-0.284,121,0.0,0.0,0.6,-0.13,0.00,1.00,1.00000,0.00003,0.00013,0.00000,0.055,0.0360
2026,4,7,13:00:30.562,-0.282,123,0.2,0.0,0.5,-0.11,0.01,1.00,1.00000,0.00003,0.00013,0.00000,0.055,0.0330
2026,4,7,13:00:30.564,-0.280,125,0.0,0.0,0.6,-0.11,0.00,0.99,1.00000,0.00003,0.00013,0.00000,0.055,0.0330
2026,4,7,13:00:30.566,-0.278,127,0.2,0.0,0.6,-0.12,0.00,0.97,1.00000,0.00007,0.00013,0.00000,0.055,0.0250
2026,4,7,13:00:30.568,-0.276,129,0.2,0.0,0.5,-0.11,0.01,0.99,1.00000,0.00007,0.00013,0.00003,0.056,0.0230
2026,4,7,13:00:30.570,-0.274,131,0.2,0.1,0.5,-0.11,0.00,0.99,1.00000,0.00007,0.00013,0.00003,0.055,0.0230
2026,4,7,13:00:30.572,-0.272,133,0.2,0.0,0.5,-0.11,0.01,1.00,1.00000,0.00007,0.00013,0.00003,0.055,0.0250
2026,4,7,13:00:30.574,-0.270,135,0.3,0.0,0.5,-0.11,0.00,0.98,1.00000,0.00007,0.00013,0.00003,0.055,0.0230
2026,4,7,13:00:30.576,-0.268,137,0.2,0.0,0.5,-0.12,0.00,0.99,1.00000,0.00007,0.00013,0.00007,0.055,0.0220
2026,4,7,13:00:30.578,-0.266,139,0.2,0.0,0.5,-0.11,0.00,0.98,1.00000,0.00007,0.00013,0.00007,0.055,0.0200
2026,4,7,13:00:30.580,-0.264,141,0.0,0.0,0.5,-0.11,0.01,0.99,1.00000,0.00007,0.00013,0.00007,0.055,0.0230
2026,4,7,13:00:30.582,-0.262,143,0.2,-0.1,0.5,-0.12,0.00,0.98,1.00000,0.00010,0.00013,0.00007,0.055,0.0380
2026,4,7,13:00:30.584,-0.260,145,0.0,-0.1,0.3,-0.11,0.01,0.98,1.00000,0.00010,0.00013,0.00010,0.055,0.0330
2026,4,7,13:00:30.586,-0.258,147,0.0,-0.1,0.3,-0.11,0.01,1.00,1.00000,0.00010,0.00013,0.00010,0.055,0.0260
2026,4,7,13:00:30.588,-0.256,149,0.2,-0.1,0.2,-0.11,0.00,1.00,1.00000,0.00010,0.00013,0.00010,0.055,0.0280
2026,4,7,13:00:30.590,-0.254,151,0.2,0.0,0.2,-0.12,0.01,0.98,1.00000,0.00010,0.00013,0.00010,0.055,0.0220
2026,4,7,13:00:30.592,-0.252,153,0.2,0.0,0.2,-0.09,0.03,1.03,1.00000,0.00010,0.00013,0.00010,0.055,0.0260
2026,4,7,13:00:30.594,-0.250,155,0.0,0.0,0.2,-0.16,0.01,0.99,1.00000,0.00010,0.00013,0.00010,0.055,0.0260
2026,4,7,13:00:30.596,-0.248,157,0.2,-0.1,0.2,-0.13,0.07,0.99,1.00000,0.00010,0.00010,0.00010,0.055,0.0220
2026,4,7,13:00:30.598,-0.246,159,0.2,0.1,0.2,-0.09,0.02,1.03,1.00000,0.00010,0.00013,0.00010,0.055,0.0230
2026,4,7,13:00:30.600,-0.244,161,0.2,0.1,0.3,-0.11,-0.04,0.99,1.00000,0.00010,0.00013,0.00013,0.055,0.0250
2026,4,7,13:00:30.602,-0.242,163,0.3,0.1,0.2,-0.12,0.04,0.96,1.00000,0.00013,0.00013,0.00013,0.055,0.0250
2026,4,7,13:00:30.604,-0.240,165,0.2,0.0,0.2,-0.10,0.02,1.01,1.00000,0.00013,0.00013,0.00013,0.055,0.0260
2026,4,7,13:00:30.606,-0.238,167,0.3,0.0,0.0,-0.13,0.00,0.95,1.00000,0.00013,0.00013,0.00013,0.055,0.0200
2026,4,7,13:00:30.608,-0.236,169,0.0,0.0,0.2,-0.13,0.02,1.00,1.00000,0.00013,0.00013,0.00013,0.055,0.0280
2026,4,7,13:00:30.610,-0.234,171,0.3,0.0,0.0,-0.11,-0.01,0.98,1.00000,0.00013,0.00013,0.00013,0.055,0.0310
2026,4,7,13:00:30.612,-0.232,173,0.2,0.0,0.2,-0.13,-0.01,0.98,1.00000,0.00013,0.00013,0.00013,0.055,0.0300
2026,4,7,13:00:30.614,-0.230,175,0.0,0.0,0.0,-0.12,0.00,0.99,1.00000,0.00013,0.00013,0.00013,0.055,0.0300
2026,4,7,13:00:30.616,-0.228,177,0.3,-0.1,0.0,-0.11,0.02,0.98,1.00000,0.00017,0.00013,0.00013,0.055,0.0300
2026,4,7,13:00:30.618,-0.226,179,0.2,-0.1,0.0,-0.12,0.02,0.98,1.00000,0.00017,0.00013,0.00013,0.055,0.0200
2026,4,7,13:00:30.620,-0.224,181,0.2,-0.1,0.0,-0.10,0.01,0.99,1.00000,0.00017,0.00010,0.00013,0.055,0.0250
2026,4,7,13:00:30.622,-0.222,183,0.2,-0.1,0.0,-0.13,0.01,0.99,1.00000,0.00017,0.00010,0.00013,0.055,0.0230
2026,4,7,13:00:30.624,-0.220,185,0.0,-0.2,0.0,-0.12,0.02,0.98,1.00000,0.00017,0.00010,0.00013,0.055,0.0280
2026,4,7,13:00:30.626,-0.218,187,0.2,-0.1,0.0,-0.12,0.01,1.00,1.00000,0.00017,0.00010,0.00013,0.055,0.0220
2026,4,7,13:00:30.628,-0.216,189,0.0,0.0,0.0,-0.10,0.00,0.99,1.00000,0.00017,0.00010,0.00013,0.055,0.0170
2026,4,7,13:00:30.630,-0.214,191,0.3,-0.1,0.0,-0.12,0.00,0.99,1.00000,0.00017,0.00010,0.00013,0.055,0.0280
2026,4,7,13:00:30.632,-0.212,193,0.3,0.0,0.0,-0.10,0.00,0.99,1.00000,0.00020,0.00010,0.00013,0.055,0.0220
2026,4,7,13:00:30.634,-0.210,195,0.0,-0.1,0.0,-0.12,0.01,0.98,1.00000,0.00020,0.00010,0.00013,0.055,0.0230
2026,4,7,13:00:30.636,-0.208,197,0.0,0.0,0.0,-0.12,0.01,0.99,1.00000,0.00020,0.00010,0.00013,0.055,0.0230
2026,4,7,13:00:30.638,-0.206,199,0.2,0.0,0.2,-0.10,0.01,0.98,1.00000,0.00020,0.00010,0.00013,0.055,0.0280
2026,4,7,13:00:30.640,-0.204,201,0.2,0.0,0.0,-0.13,0.01,1.00,1.00000,0.00020,0.00010,0.00017,0.055,0.0230
2026,4,7,13:00:30.642,-0.202,203,0.0,0.0,0.2,-0.11,0.01,0.99,1.00000,0.00020,0.00010,0.00017,0.055,0.0230
2026,4,7,13:00:30.644,-0.200,205,0.2,0.0,0.0,-0.10,0.00,0.98,1.00000,0.00020,0.00010,0.00017,0.055,0.0260
2026,4,7,13:00:30.646,-0.198,207,0.2,0.0,0.0,-0.13,0.01,0.98,1.00000,0.00020,0.00010,0.00017,0.055,0.0280
2026,4,7,13:00:30.648,-0.196,209,0.2,0.0,0.2,-0.09,0.00,0.99,1.00000,0.00020,0.00010,0.00017,0.055,0.0330
2026,4,7,13:00:30.650,-0.194,211,0.0,0.0,0.2,-0.13,0.02,0.98,1.00000,0.00020,0.00010,0.00017,0.055,0.0230
2026,4,7,13:00:30.652,-0.192,213,0.2,0.1,0.2,-0.10,0.00,1.00,1.00000,0.00023,0.00010,0.00017,0.055,0.0200
2026,4,7,13:00:30.654,-0.190,215,0.0,-0.1,0.3,-0.11,0.00,0.98,1.00000,0.00023,0.00010,0.00017,0.055,0.0220
2026,4,7,13:00:30.656,-0.188,217,0.0,-0.1,0.2,-0.13,0.02,0.98,1.00000,0.00023,0.00010,0.00017,0.055,0.0190
2026,4,7,13:00:30.658,-0.186,219,0.2,0.0,0.3,-0.11,0.01,1.00,1.00000,0.00023,0.00010,0.00020,0.055,0.0310
2026,4,7,13:00:30.660,-0.184,221,0.0,-0.2,0.2,-0.15,0.02,1.00,1.00000,0.00023,0.00010,0.00020,0.055,0.0310
2026,4,7,13:00:30.662,-0.182,223,0.2,0.0,0.2,-0.10,0.02,1.00,1.00000,0.00023,0.00010,0.00020,0.056,0.0230
2026,4,7,13:00:30.664,-0.180,225,0.2,0.0,0.2,-0.11,0.00,0.99,1.00000,0.00023,0.00010,0.00020,0.055,0.0250
2026,4,7,13:00:30.666,-0.178,227,0.2,0.0,0.0,-0.12,0.00,0.97,1.00000,0.00023,0.00010,0.00020,0.055,0.0260
2026,4,7,13:00:30.668,-0.176,229,0.0,0.1,0.0,-0.10,0.02,0.99,1.00000,0.00023,0.00010,0.00020,0.055,0.0260
2026,4,7,13:00:30.670,-0.174,231,0.0,0.0,0.2,-0.11,0.00,1.01,1.00000,0.00023,0.00010,0.00020,0.055,0.0230
2026,4,7,13:00:30.672,-0.172,233,0.2,-0.1,0.0,-0.13,-0.02,0.97,1.00000,0.00023,0.00010,0.00020,0.055,0.0300
2026,4,7,13:00:30.674,-0.170,235,0.0,0.1,0.0,-0.14,0.03,1.00,1.00000,0.00023,0.00010,0.00020,0.055,0.0260
2026,4,7,13:00:30.676,-0.168,237,0.0,-0.2,0.0,-0.13,-0.02,0.99,1.00000,0.00023,0.00010,0.00020,0.055,0.0200
2026,4,7,13:00:30.678,-0.166,239,0.2,0.0,0.0,-0.11,0.00,0.98,1.00000,0.00027,0.00010,0.00020,0.056,0.0300
2026,4,7,13:00:30.680,-0.164,241,0.0,-0.1,0.2,-0.14,-0.01,1.00,1.00000,0.00027,0.00010,0.00020,0.055,0.0260
2026,4,7,13:00:30.682,-0.162,243,0.0,-0.2,0.0,-0.11,0.02,1.00,1.00000,0.00027,0.00010,0.00020,0.055,0.0300
2026,4,7,13:00:30.684,-0.160,245,0.0,0.0,0.2,-0.10,0.00,1.03,1.00000,0.00027,0.00010,0.00023,0.055,0.0300
2026,4,7,13:00:30.686,-0.158,247,0.0,-0.2,0.2,-0.12,0.01,1.07,1.00000,0.00027,0.00007,0.00023,0.055,0.0330
2026,4,7,13:00:30.688,-0.156,249,0.0,-0.1,0.0,-0.09,0.02,1.11,1.00000,0.00027,0.00007,0.00023,0.055,0.0260
2026,4,7,13:00:30.690,-0.154,1,0.0,-0.2,0.2,-0.16,0.03,1.29,1.00000,0.00027,0.00007,0.00023,0.056,0.0280
2026,4,7,13:00:30.692,-0.152,3,0.0,-0.2,0.2,-0.31,0.12,1.51,1.00000,0.00027,0.00007,0.00023,0.055,0.0250
2026,4,7,13:00:30.694,-0.150,5,0.3,0.5,0.0,-0.41,-0.04,2.28,1.00000,0.00027,0.00007,0.00023,0.056,0.0250
2026,4,7,13:00:30.696,-0.148,7,0.2,2.6,0.9,0.13,-0.31,2.91,1.00000,0.00027,0.00013,0.00023,0.056,0.0310
2026,4,7,13:00:30.698,-0.146,9,0.3,0.1,-0.3,-1.67,1.16,5.50,1.00000,0.00027,0.00013,0.00023,0.055,0.0330
2026,4,7,13:00:30.700,-0.144,11,-9.1,4.4,-1.5,0.22,-0.64,7.23,1.00000,0.00013,0.00020,0.00020,0.055,0.0300
2026,4,7,13:00:30.702,-0.142,13,-3.6,1.9,-4.9,-0.85,1.32,6.11,1.00000,0.00007,0.00023,0.00013,0.055,0.0260
2026,4,7,13:00:30.704,-0.140,15,-8.7,-9.0,-2.8,-0.23,-0.48,5.52,1.00000,-0.00007,0.00007,0.00007,0.055,0.0330
2026,4,7,13:00:30.706,-0.138,17,4.5,-5.4,-4.6,-0.51,0.29,6.57,1.00000,0.00000,0.00000,0.00000,0.055,0.0280
2026,4,7,13:00:30.708,-0.136,19,-0.4,-0.5,-4.1,0.26,-0.34,7.39,1.00000,0.00000,0.00000,-0.00003,0.055,0.0260
2026,4,7,13:00:30.710,-0.134,21,-1.1,-4.0,-9.2,-0.41,0.28,7.18,1.00000,0.00000,-0.00007,-0.00020,0.055,0.0250
2026,4,7,13:00:30.712,-0.132,23,-2.0,-7.4,-12.3,-0.44,-0.06,7.42,0.99997,-0.00003,-0.00020,-0.00043,0.055,0.0260
2026,4,7,13:00:30.714,-0.130,25,2.4,-6.1,-15.0,-0.29,-0.38,8.01,0.99997,0.00000,-0.00030,-0.00067,0.055,0.0230
2026,4,7,13:00:30.716,-0.128,27,1.0,-5.4,-16.0,-0.12,-0.03,8.38,0.99997,0.00000,-0.00040,-0.00097,0.055,0.0300
2026,4,7,13:00:30.718,-0.126,29,-2.5,-8.1,-16.7,-0.23,0.02,8.65,0.99997,-0.00003,-0.00053,-0.00127,0.055,0.0310
2026,4,7,13:00:30.720,-0.124,31,-3.1,-11.8,-18.5,-0.45,-0.10,8.64,0.99997,-0.00010,-0.00073,-0.00157,0.056,0.0230
2026,4,7,13:00:30.722,-0.122,33,-1.7,-16.2,-21.7,0.01,-0.09,8.79,0.99997,-0.00010,-0.00103,-0.00197,0.055,0.0330
2026,4,7,13:00:30.724,-0.120,35,1.0,-17.4,-24.5,0.00,0.00,8.79,0.99997,-0.00010,-0.00133,-0.00240,0.055,0.0170
2026,4,7,13:00:30.726,-0.118,37,-0.8,-19.5,-24.2,-0.11,-0.09,8.79,0.99997,-0.00010,-0.00167,-0.00280,0.055,0.0250
2026,4,7,13:00:30.728,-0.116,39,0.7,-18.3,-25.6,-0.11,0.11,8.76,0.99997,-0.00010,-0.00200,-0.00327,0.055,0.0250
2026,4,7,13:00:30.730,-0.114,41,-0.6,-22.2,-28.3,0.09,-0.05,8.84,0.99997,-0.00010,-0.00240,-0.00377,0.055,0.0300
2026,4,7,13:00:30.732,-0.112,43,-1.8,-24.0,-31.4,0.19,0.07,8.83,0.99997,-0.00013,-0.00280,-0.00430,0.055,0.0300
2026,4,7,13:00:30.734,-0.110,45,-1.7,-23.3,-30.2,0.00,0.08,9.14,0.99997,-0.00017,-0.00320,-0.00483,0.055,0.0300
2026,4,7,13:00:30.736,-0.108,47,0.9,-22.2,-33.2,0.27,0.20,8.94,0.99997,-0.00017,-0.00360,-0.00540,0.055,0.0220
2026,4,7,13:00:30.738,-0.106,49,0.5,-22.8,-35.8,0.31,0.12,9.23,0.99997,-0.00013,-0.00400,-0.00603,0.055,0.0230
2026,4,7,13:00:30.740,-0.104,51,-1.1,-20.7,-36.7,0.42,0.32,9.21,0.99997,-0.00017,-0.00437,-0.00667,0.055,0.0250
2026,4,7,13:00:30.742,-0.102,53,1.2,-20.2,-37.7,-0.05,0.24,8.68,0.99993,-0.00013,-0.00470,-0.00733,0.055,0.0220
2026,4,7,13:00:30.744,-0.100,55,1.3,-15.2,-42.6,-0.49,0.21,8.89,0.99993,-0.00013,-0.00497,-0.00807,0.055,0.0280
2026,4,7,13:00:30.746,-0.098,57,3.0,-12.7,-52.1,-0.21,-0.05,8.58,0.99993,-0.00007,-0.00520,-0.00900,0.055,0.0190
2026,4,7,13:00:30.748,-0.096,59,1.9,-16.5,-59.1,-0.33,0.59,7.04,0.99993,-0.00003,-0.00550,-0.01003,0.055,0.0250
2026,4,7,13:00:30.750,-0.094,61,5.8,-14.1,-66.9,-0.43,0.17,7.90,0.99990,0.00003,-0.00573,-0.01120,0.055,0.0250
2026,4,7,13:00:30.752,-0.092,63,-6.3,-11.0,-69.6,0.69,-0.26,8.78,0.99990,-0.00003,-0.00593,-0.01240,0.055,0.0230
2026,4,7,13:00:30.754,-0.090,65,-0.7,-5.1,-68.5,-0.16,-0.04,8.25,0.99987,-0.00003,-0.00603,-0.01360,0.055,0.0260
2026,4,7,13:00:30.756,-0.088,67,3.0,-4.7,-67.9,-1.31,-0.52,9.09,0.99987,0.00000,-0.00610,-0.01477,0.055,0.0260
2026,4,7,13:00:30.758,-0.086,69,1.9,-6.1,-70.8,0.44,0.17,8.99,0.99983,0.00003,-0.00620,-0.01603,0.055,0.0330
2026,4,7,13:00:30.760,-0.084,71,-0.8,-7.8,-78.5,1.08,0.06,8.90,0.99980,0.00003,-0.00637,-0.01740,0.055,0.0310
2026,4,7,13:00:30.762,-0.082,73,1.2,-6.7,-74.9,1.37,0.04,8.91,0.99980,0.00007,-0.00647,-0.01870,0.055,0.0390
2026,4,7,13:00:30.764,-0.080,75,1.0,-3.2,-73.9,0.71,-0.21,8.87,0.99977,0.00007,-0.00653,-0.02000,0.056,0.0390
2026,4,7,13:00:30.766,-0.078,77,3.4,-2.2,-75.7,0.54,-0.14,8.93,0.99973,0.00013,-0.00657,-0.02130,0.055,0.0330
2026,4,7,13:00:30.768,-0.076,79,0.3,1.1,-76.2,0.39,0.32,8.63,0.99970,0.00017,-0.00653,-0.02263,0.055,0.0300
2026,4,7,13:00:30.770,-0.074,81,7.2,-0.1,-75.6,-0.13,-0.12,8.71,0.99967,0.00030,-0.00657,-0.02397,0.055,0.0340
2026,4,7,13:00:30.772,-0.072,83,3.3,1.1,-79.2,-0.31,0.07,9.27,0.99963,0.00037,-0.00653,-0.02533,0.055,0.0360
2026,4,7,13:00:30.774,-0.070,85,3.0,4.6,-84.7,-0.92,0.52,9.88,0.99960,0.00043,-0.00647,-0.02683,0.055,0.0260
2026,4,7,13:00:30.776,-0.068,87,4.5,8.4,-82.7,-0.86,-0.03,9.35,0.99957,0.00053,-0.00630,-0.02827,0.055,0.0300
2026,4,7,13:00:30.778,-0.066,89,3.0,13.1,-78.3,-0.76,0.36,9.25,0.99953,0.00060,-0.00607,-0.02963,0.055,0.0280
2026,4,7,13:00:30.780,-0.064,91,2.7,12.6,-78.4,0.07,-0.03,9.41,0.99950,0.00067,-0.00587,-0.03100,0.055,0.0260
2026,4,7,13:00:30.782,-0.062,93,3.3,10.5,-78.8,0.20,-0.09,7.70,0.99943,0.00073,-0.00567,-0.03237,0.055,0.0250
2026,4,7,13:00:30.784,-0.060,95,0.9,8.9,-72.4,-0.18,0.49,8.61,0.99940,0.00077,-0.00553,-0.03363,0.055,0.0330
2026,4,7,13:00:30.786,-0.058,97,1.7,12.1,-69.4,0.63,-0.16,10.23,0.99937,0.00080,-0.00530,-0.03487,0.055,0.0230
2026,4,7,13:00:30.788,-0.056,99,1.2,13.1,-65.1,0.98,0.04,9.16,0.99933,0.00083,-0.00507,-0.03600,0.055,0.0220
2026,4,7,13:00:30.790,-0.054,101,2.8,11.2,-63.1,-0.08,0.21,8.70,0.99927,0.00090,-0.00490,-0.03710,0.055,0.0220
2026,4,7,13:00:30.792,-0.052,103,6.2,10.2,-64.1,0.29,0.09,8.82,0.99923,0.00103,-0.00470,-0.03820,0.055,0.0200
2026,4,7,13:00:30.794,-0.050,105,1.6,9.6,-66.4,0.22,0.39,9.30,0.99920,0.00107,-0.00453,-0.03937,0.055,0.0280
2026,4,7,13:00:30.796,-0.048,107,4.1,8.1,-63.6,-0.11,0.17,8.93,0.99917,0.00113,-0.00440,-0.04047,0.055,0.0340
2026,4,7,13:00:30.798,-0.046,109,3.0,9.8,-63.4,-0.13,0.26,9.06,0.99910,0.00120,-0.00423,-0.04157,0.055,0.0280
2026,4,7,13:00:30.800,-0.044,111,3.1,9.6,-63.7,-0.10,0.20,8.93,0.99907,0.00127,-0.00407,-0.04270,0.056,0.0250
2026,4,7,13:00:30.802,-0.042,113,4.5,11.2,-63.0,-0.42,0.09,9.05,0.99900,0.00137,-0.00387,-0.04380,0.055,0.0300
2026,4,7,13:00:30.804,-0.040,115,4.7,12.0,-61.0,-0.50,0.21,8.94,0.99897,0.00147,-0.00367,-0.04487,0.055,0.0250
2026,4,7,13:00:30.806,-0.038,117,3.7,12.0,-57.3,-0.65,0.29,9.02,0.99893,0.00153,-0.00347,-0.04587,0.055,0.0360
2026,4,7,13:00:30.808,-0.036,119,3.0,11.9,-56.4,-0.32,0.28,9.03,0.99887,0.00160,-0.00323,-0.04683,0.055,0.0360
2026,4,7,13:00:30.810,-0.034,121,2.6,11.9,-55.6,-0.27,0.09,8.99,0.99883,0.00167,-0.00303,-0.04780,0.055,0.0300
2026,4,7,13:00:30.812,-0.032,123,4.1,11.4,-55.0,-0.04,0.12,9.07,0.99880,0.00173,-0.00283,-0.04877,0.055,0.0390
2026,4,7,13:00:30.814,-0.030,125,4.2,11.2,-54.9,-0.12,0.16,8.93,0.99873,0.00183,-0.00263,-0.04973,0.055,0.0260
2026,4,7,13:00:30.816,-0.028,127,3.0,10.5,-54.9,0.00,0.05,9.02,0.99870,0.00190,-0.00247,-0.05067,0.055,0.0230
2026,4,7,13:00:30.818,-0.026,129,3.7,9.3,-55.7,0.01,-0.01,9.00,0.99863,0.00197,-0.00230,-0.05167,0.055,0.0310
2026,4,7,13:00:30.820,-0.024,131,5.1,8.1,-58.4,0.16,-0.21,8.99,0.99860,0.00207,-0.00217,-0.05267,0.055,0.0280
2026,4,7,13:00:30.822,-0.022,133,5.8,7.4,-62.3,0.26,0.04,8.94,0.99853,0.00220,-0.00203,-0.05377,0.055,0.0250
2026,4,7,13:00:30.824,-0.020,135,6.2,6.3,-64.3,0.22,-0.18,9.10,0.99847,0.00230,-0.00193,-0.05487,0.055,0.0250
2026,4,7,13:00:30.826,-0.018,137,6.8,5.4,-65.5,0.34,-0.01,9.14,0.99840,0.00243,-0.00183,-0.05603,0.055,0.0260
2026,4,7,13:00:30.828,-0.016,139,5.5,7.1,-67.1,-0.09,0.03,9.02,0.99833,0.00253,-0.00173,-0.05720,0.056,0.0330
2026,4,7,13:00:30.830,-0.014,141,6.3,7.8,-71.3,-0.59,-0.18,9.14,0.99827,0.00267,-0.00160,-0.05843,0.055,0.0230
2026,4,7,13:00:30.832,-0.012,143,5.8,8.1,-75.2,-0.68,-0.15,9.01,0.99820,0.00277,-0.00143,-0.05973,0.055,0.0330
2026,4,7,13:00:30.834,-0.010,145,4.2,6.8,-77.7,-0.61,-0.19,8.96,0.99810,0.00287,-0.00133,-0.06110,0.055,0.0260
2026,4,7,13:00:30.836,-0.008,147,5.8,6.0,-82.7,-0.18,-0.22,9.11,0.99803,0.00297,-0.00123,-0.06253,0.055,0.0260
2026,4,7,13:00:30.838,-0.006,149,4.5,5.0,-85.3,0.07,-0.04,8.90,0.99793,0.00307,-0.00113,-0.06403,0.056,0.0330
2026,4,7,13:00:30.840,-0.004,151,6.3,4.9,-87.4,0.09,-0.24,9.03,0.99783,0.00317,-0.00107,-0.06553,0.056,0.0310
2026,4,7,13:00:30.842,-0.002,153,6.8,5.4,-91.1,0.22,-0.10,9.08,0.99773,0.00330,-0.00097,-0.06713,0.055,0.0360
2026,4,7,13:00:30.844,0.000,155,6.6,5.1,-92.1,-0.01,0.00,9.04,0.99760,0.00343,-0.00087,-0.06873,0.055,0.0330
2026,4,7,13:00:30.846,0.002,157,6.8,3.9,-96.2,0.02,-0.10,9.13,0.99750,0.00353,-0.00080,-0.07040,0.055,0.0250
2026,4,7,13:00:30.848,0.004,159,6.3,3.3,-99.4,-0.17,-0.01,8.98,0.99737,0.00367,-0.00077,-0.07213,0.055,0.0330
2026,4,7,13:00:30.850,0.006,161,7.3,1.2,-102.9,-0.25,0.02,9.00,0.99723,0.00380,-0.00073,-0.07393,0.055,0.0340
2026,4,7,13:00:30.852,0.008,163,8.0,0.7,-104.7,-0.46,0.13,9.06,0.99710,0.00393,-0.00073,-0.07577,0.055,0.0330
2026,4,7,13:00:30.854,0.010,165,7.9,-1.3,-104.7,0.00,0.34,9.09,0.99697,0.00407,-0.00077,-0.07757,0.055,0.0310
2026,4,7,13:00:30.856,0.012,167,7.3,-2.6,-101.8,0.04,0.11,9.21,0.99683,0.00420,-0.00080,-0.07937,0.059,0.0090
2026,4,7,13:00:30.858,0.014,169,6.9,-3.7,-100.1,-0.11,0.36,9.18,0.99667,0.00433,-0.00087,-0.08110,0.055,0.0280
2026,4,7,13:00:30.860,0.016,171,7.0,-1.9,-98.7,-0.85,0.37,9.13,0.99653,0.00443,-0.00090,-0.08280,0.055,0.0300
2026,4,7,13:00:30.862,0.018,173,6.8,-2.0,-95.8,-1.26,0.27,9.14,0.99640,0.00457,-0.00093,-0.08447,0.055,0.0300
2026,4,7,13:00:30.864,0.020,175,7.0,-3.3,-98.6,-1.01,0.19,9.32,0.99623,0.00467,-0.00100,-0.08620,0.055,0.0340
2026,4,7,13:00:30.866,0.022,177,5.5,-2.3,-97.7,-0.77,0.69,9.32,0.99610,0.00477,-0.00103,-0.08790,0.055,0.0230
2026,4,7,13:00:30.868,0.024,179,5.5,-8.2,-95.5,-3.10,0.79,8.87,0.99597,0.00487,-0.00120,-0.08957,0.055,0.0260
2026,4,7,13:00:30.870,0.026,181,5.6,-6.9,-99.4,-0.23,0.37,9.39,0.99580,0.00493,-0.00130,-0.09130,0.056,0.0250
2026,4,7,13:00:30.872,0.028,183,1.4,-7.1,-81.8,0.63,0.40,9.60,0.99567,0.00497,-0.00143,-0.09270,0.055,0.0330
2026,4,7,13:00:30.874,0.030,185,4.0,-11.0,-77.8,-0.51,-0.20,9.44,0.99553,0.00503,-0.00163,-0.09407,0.055,0.0310
2026,4,7,13:00:30.876,0.032,187,4.7,-10.7,-74.2,0.76,0.65,9.75,0.99540,0.00510,-0.00180,-0.09537,0.055,0.0190
2026,4,7,13:00:30.878,0.034,189,3.1,-14.9,-81.9,0.72,0.11,9.50,0.99527,0.00513,-0.00207,-0.09677,0.055,0.0250
2026,4,7,13:00:30.880,0.036,191,3.1,-10.9,-72.0,0.45,0.82,9.53,0.99513,0.00517,-0.00227,-0.09803,0.056,0.0250
2026,4,7,13:00:30.882,0.038,193,3.0,-11.3,-68.2,0.96,0.30,9.51,0.99503,0.00520,-0.00247,-0.09920,0.055,0.0360
2026,4,7,13:00:30.884,0.040,195,0.9,-11.8,-61.5,0.42,0.21,9.56,0.99493,0.00520,-0.00267,-0.10030,0.055,0.0260
2026,4,7,13:00:30.886,0.042,197,1.0,-5.7,-52.5,0.22,-0.23,9.47,0.99483,0.00520,-0.00277,-0.10120,0.055,0.0310
2026,4,7,13:00:30.888,0.044,199,1.3,-6.2,-52.5,-0.20,-0.46,9.54,0.99473,0.00523,-0.00287,-0.10210,0.055,0.0250
2026,4,7,13:00:30.890,0.046,201,-0.3,-5.5,-58.9,0.32,0.25,9.37,0.99463,0.00520,-0.00297,-0.10313,0.055,0.0340
2026,4,7,13:00:30.892,0.048,203,1.7,-3.4,-51.5,0.01,-0.17,9.50,0.99453,0.00523,-0.00300,-0.10403,0.055,0.0330
2026,4,7,13:00:30.894,0.050,205,0.3,-2.6,-61.6,0.02,-0.16,9.74,0.99443,0.00523,-0.00307,-0.10510,0.055,0.0340
2026,4,7,13:00:30.896,0.052,207,-1.0,3.0,-66.4,-0.20,-0.22,9.83,0.99430,0.00523,-0.00300,-0.10627,0.055,0.0390
2026,4,7,13:00:30.898,0.054,209,1.3,2.8,-72.2,-0.25,0.08,9.34,0.99417,0.00527,-0.00293,-0.10750,0.055,0.0250
2026,4,7,13:00:30.900,0.056,211,2.8,5.7,-86.1,-0.05,-0.32,9.58,0.99400,0.00533,-0.00283,-0.10900,0.055,0.0110
2026,4,7,13:00:30.902,0.058,213,3.3,5.6,-82.7,0.06,0.61,9.58,0.99383,0.00540,-0.00273,-0.11043,0.056,0.0310
2026,4,7,13:00:30.904,0.060,215,7.9,6.8,-82.6,-0.07,0.35,9.89,0.99370,0.00557,-0.00263,-0.11187,0.055,0.0260
2026,4,7,13:00:30.906,0.062,217,6.2,6.8,-74.5,1.04,1.09,9.72,0.99353,0.00567,-0.00250,-0.11317,0.055,0.0310
2026,4,7,13:00:30.908,0.064,219,6.8,4.9,-57.3,1.64,1.14,9.53,0.99343,0.00580,-0.00243,-0.11417,0.055,0.0330
2026,4,7,13:00:30.910,0.066,221,2.4,5.7,-45.1,0.59,0.00,9.64,0.99333,0.00587,-0.00233,-0.11493,0.056,0.0330
2026,4,7,13:00:30.912,0.068,223,2.0,6.7,-38.9,1.69,0.19,9.83,0.99327,0.00593,-0.00223,-0.11560,0.055,0.0340
2026,4,7,13:00:30.914,0.070,225,1.6,7.1,-43.5,-0.09,-1.60,9.71,0.99317,0.00597,-0.00210,-0.11637,0.055,0.0260
2026,4,7,13:00:30.916,0.072,227,0.0,12.8,-41.9,-0.66,-0.21,9.58,0.99307,0.00600,-0.00187,-0.11710,0.055,0.0250
2026,4,7,13:00:30.918,0.074,229,2.4,17.0,-53.1,-1.33,-0.81,9.73,0.99297,0.00607,-0.00157,-0.11800,0.055,0.0260
2026,4,7,13:00:30.920,0.076,231,1.4,16.3,-62.3,0.77,0.08,9.56,0.99283,0.00613,-0.00130,-0.11910,0.056,0.0420
2026,4,7,13:00:30.922,0.078,233,3.3,13.4,-58.0,1.09,0.89,9.66,0.99273,0.00623,-0.00107,-0.12010,0.054,0.0280
2026,4,7,13:00:30.924,0.080,235,1.7,11.2,-50.7,0.50,0.43,9.57,0.99263,0.00627,-0.00087,-0.12097,0.055,0.0230
2026,4,7,13:00:30.926,0.082,237,-0.3,17.7,-41.6,0.83,0.65,9.56,0.99253,0.00630,-0.00053,-0.12170,0.055,0.0310
2026,4,7,13:00:30.928,0.084,239,0.7,20.7,-33.3,0.21,0.37,9.58,0.99247,0.00637,-0.00017,-0.12227,0.055,0.0200
2026,4,7,13:00:30.930,0.086,241,0.6,20.8,-36.0,-1.00,0.04,9.58,0.99237,0.00643,0.00013,-0.12290,0.055,0.0260
2026,4,7,13:00:30.932,0.088,243,0.7,22.9,-41.6,-0.33,-0.44,9.68,0.99230,0.00650,0.00053,-0.12360,0.056,0.0360
2026,4,7,13:00:30.934,0.090,245,1.4,21.4,-39.9,-0.40,0.53,9.22,0.99220,0.00657,0.00093,-0.12430,0.055,0.0280
2026,4,7,13:00:30.936,0.092,247,3.7,19.8,-34.2,0.66,0.20,9.28,0.99213,0.00667,0.00127,-0.12490,0.055,0.0340
2026,4,7,13:00:30.938,0.094,249,4.0,18.7,-30.1,-1.47,0.30,9.74,0.99207,0.00677,0.00157,-0.12540,0.055,0.0340
2026,4,7,13:00:30.940,0.096,1,3.5,24.5,-35.8,0.31,0.83,9.87,0.99197,0.00690,0.00200,-0.12603,0.055,0.0220
2026,4,7,13:00:30.942,0.098,3,2.4,21.0,-28.0,-1.11,-0.10,9.86,0.99193,0.00697,0.00237,-0.12650,0.055,0.0360
2026,4,7,13:00:30.944,0.100,5,-0.1,20.3,-27.7,-0.07,0.00,9.78,0.99187,0.00703,0.00273,-0.12700,0.055,0.0280
2026,4,7,13:00:30.946,0.102,7,0.0,19.0,-24.9,-0.21,-0.08,9.59,0.99180,0.00707,0.00307,-0.12740,0.055,0.0220
2026,4,7,13:00:30.948,0.104,9,-1.5,13.4,-16.5,0.44,-0.12,9.57,0.99177,0.00707,0.00330,-0.12770,0.055,0.0230
2026,4,7,13:00:30.950,0.106,11,2.0,9.1,-13.0,0.45,-0.06,9.87,0.99173,0.00710,0.00343,-0.12793,0.055,0.0200
2026,4,7,13:00:30.952,0.108,13,4.4,10.0,-13.6,-0.30,0.23,9.76,0.99170,0.00720,0.00360,-0.12817,0.055,0.0280
2026,4,7,13:00:30.954,0.110,15,6.8,19.1,-17.5,-0.19,0.28,9.80,0.99167,0.00737,0.00393,-0.12847,0.055,0.0260
2026,4,7,13:00:30.956,0.112,17,6.5,16.6,-17.1,-0.27,0.99,9.92,0.99163,0.00753,0.00420,-0.12877,0.055,0.0200
2026,4,7,13:00:30.958,0.114,19,3.7,12.1,-24.1,-1.30,-0.16,9.94,0.99157,0.00760,0.00440,-0.12917,0.055,0.0220
2026,4,7,13:00:30.960,0.116,21,-0.7,12.6,-19.2,0.10,-0.05,9.62,0.99153,0.00763,0.00463,-0.12950,0.055,0.0230
2026,4,7,13:00:30.962,0.118,23,1.9,13.4,-19.2,-0.34,-0.65,10.06,0.99147,0.00770,0.00487,-0.12983,0.055,0.0000
2026,4,7,13:00:30.964,0.120,25,0.3,9.9,-16.8,-0.78,-0.13,9.69,0.99143,0.00773,0.00503,-0.13013,0.055,0.0220
2026,4,7,13:00:30.966,0.122,27,4.4,15.5,-22.1,0.50,-0.45,9.94,0.99137,0.00783,0.00530,-0.13050,0.060,0.0170
2026,4,7,13:00:30.968,0.124,29,4.4,16.1,-10.9,-1.24,0.75,10.02,0.99137,0.00793,0.00557,-0.13070,0.054,0.0230
2026,4,7,13:00:30.970,0.126,31,6.6,20.1,-19.0,-0.14,-0.38,9.99,0.99130,0.00810,0.00590,-0.13103,0.055,0.0260
2026,4,7,13:00:30.972,0.128,33,4.2,17.9,-16.1,-0.79,0.73,10.16,0.99127,0.00820,0.00620,-0.13130,0.055,0.0250
2026,4,7,13:00:30.974,0.130,35,4.8,13.1,-16.7,-0.12,0.00,9.78,0.99123,0.00833,0.00643,-0.13160,0.055,0.0260
2026,4,7,13:00:30.976,0.132,37,3.7,13.1,-18.6,0.34,0.14,9.69,0.99120,0.00843,0.00663,-0.13190,0.055,0.0280
2026,4,7,13:00:30.978,0.134,39,4.2,11.4,-17.1,-0.10,0.06,9.81,0.99113,0.00853,0.00683,-0.13220,0.055,0.0260
2026,4,7,13:00:30.980,0.136,41,6.8,14.4,-15.3,0.03,0.02,9.93,0.99110,0.00867,0.00707,-0.13247,0.055,0.0300
2026,4,7,13:00:30.982,0.138,43,6.9,13.5,-17.2,-0.37,0.22,10.00,0.99107,0.00880,0.00730,-0.13277,0.055,0.0260
2026,4,7,13:00:30.984,0.140,45,7.2,12.8,-14.3,-0.29,0.02,9.52,0.99103,0.00897,0.00750,-0.13300,0.055,0.0310
2026,4,7,13:00:30.986,0.142,47,8.9,12.1,-15.0,-0.02,0.11,10.21,0.99100,0.00917,0.00770,-0.13327,0.054,0.0280
2026,4,7,13:00:30.988,0.144,49,5.6,9.8,-16.5,0.25,0.32,9.70,0.99093,0.00927,0.00787,-0.13357,0.055,0.0300
2026,4,7,13:00:30.990,0.146,51,8.4,10.5,-14.4,-0.43,0.11,10.11,0.99090,0.00943,0.00803,-0.13380,0.056,0.0220
2026,4,7,13:00:30.992,0.148,53,6.2,11.3,-15.5,-0.48,0.26,9.83,0.99087,0.00957,0.00820,-0.13407,0.055,0.0200
2026,4,7,13:00:30.994,0.150,55,7.6,12.0,-15.5,-0.29,-0.11,9.74,0.99083,0.00973,0.00840,-0.13433,0.055,0.0260
2026,4,7,13:00:30.996,0.152,57,7.3,11.9,-14.8,-0.56,0.21,9.73,0.99080,0.00987,0.00860,-0.13460,0.055,0.0190
2026,4,7,13:00:30.998,0.154,59,7.9,10.5,-16.5,-0.29,0.19,9.66,0.99077,0.01003,0.00877,-0.13490,0.055,0.0230
2026,4,7,13:00:31.000,0.156,61,7.9,10.3,-15.3,-0.21,0.13,9.67,0.99070,0.01020,0.00893,-0.13517,0.055,0.0260
2026,4,7,13:00:31.002,0.158,63,8.4,9.9,-16.1,-0.12,0.10,9.63,0.99067,0.01037,0.00907,-0.13543,0.055,0.0230
2026,4,7,13:00:31.004,0.160,65,7.9,10.6,-15.8,-0.23,0.21,9.74,0.99063,0.01053,0.00923,-0.13570,0.055,0.0260
2026,4,7,13:00:31.006,0.162,67,9.8,10.0,-15.3,-0.23,-0.05,9.53,0.99060,0.01073,0.00940,-0.13597,0.055,0.0260
2026,4,7,13:00:31.008,0.164,69,8.9,9.5,-16.1,-0.26,0.24,9.67,0.99053,0.01090,0.00953,-0.13623,0.056,0.0260
2026,4,7,13:00:31.010,0.166,71,9.1,8.6,-16.1,-0.40,0.01,9.60,0.99050,0.01107,0.00967,-0.13653,0.055,0.0260
2026,4,7,13:00:31.012,0.168,73,10.0,8.9,-15.5,-0.11,0.11,9.68,0.99047,0.01127,0.00980,-0.13680,0.055,0.0280
2026,4,7,13:00:31.014,0.170,75,9.8,7.8,-16.4,-0.30,0.19,9.56,0.99043,0.01147,0.00993,-0.13707,0.055,0.0250
2026,4,7,13:00:31.016,0.172,77,10.1,8.9,-15.8,-0.38,0.15,9.68,0.99037,0.01163,0.01007,-0.13737,0.055,0.0260
2026,4,7,13:00:31.018,0.174,79,10.7,8.9,-16.2,-0.34,0.11,9.53,0.99033,0.01187,0.01020,-0.13763,0.055,0.0220
2026,4,7,13:00:31.020,0.176,81,10.5,7.9,-16.4,-0.31,0.11,9.53,0.99030,0.01207,0.01030,-0.13793,0.055,0.0230
2026,4,7,13:00:31.022,0.178,83,11.5,8.5,-16.1,-0.33,0.13,9.81,0.99027,0.01227,0.01043,-0.13820,0.055,0.0260
2026,4,7,13:00:31.024,0.180,85,11.4,7.4,-16.7,-0.41,0.18,10.04,0.99020,0.01247,0.01053,-0.13850,0.055,0.0280
2026,4,7,13:00:31.026,0.182,87,11.9,7.9,-16.1,0.18,-0.22,9.27,0.99017,0.01270,0.01063,-0.13877,0.055,0.0230
2026,4,7,13:00:31.028,0.184,89,12.1,7.0,-16.7,-0.21,0.05,9.52,0.99013,0.01293,0.01073,-0.13907,0.055,0.0070
