timestamp__ms,temp__C,pressure__kpa,accel_x__m_s2,accel_y__m_s2,accel_z__m_s2,gyro_x__dps,gyro_y__dps,gyro_z__dps,e_alt__m,e_vel__m_s,e_acc__m_s2,e_bias,innovation0,innovation1,r1c1,r1c2,r1c3,r2c1,r2c2,r2c3,r3c1,r3c2,r3c3,effort
1507511, 6.170000076293945, 100.00399780273438, 6.766901969909668, 7.1880388259887695, 0.3637090027332306, -0.0024429999757558107, -0.0024429999757558107, -0.007329999934881926, -0.011331379413604736, -0.6257085800170898, -0.5880473852157593, 10.455658912658691, 0.0, 0.0, 1.0, 0.0, 0.0, 0.0, 1.0, 0.0, 0.0, 0.0, 1.0, 0.0
1507521, 6.159999847412109, 100.00199890136719, 6.790830135345459, 7.1880388259887695, 0.26799601316452026, 0.0048859999515116215, 0.0024429999757558107, -0.00977300014346838, 0.09776972234249115, -0.23931172490119934, -0.2905025780200958, 10.175020217895508, 0.0, 0.0, 1.0, 0.0, 0.0, 0.0, 1.0, 0.0, 0.0, 0.0, 1.0, 0.0
1507531, 6.179999828338623, 100.00399780273438, 6.652046203613281, 7.350750923156738, 0.11964099854230881, 0.0024429999757558107, 0.012217000126838684, -0.00977300014346838, 0.1629638373851776, -0.012394294142723083, -0.10938499867916107, 10.010821342468262, 0.0, 0.0, 1.0, 0.0, 0.0, 0.0, 1.0, 0.0, 0.0, 0.0, 1.0, 0.0
1507541, 6.170000076293945, 100.00299835205078, 6.685545921325684, 7.302894115447998, 0.26799601316452026, 0.0024429999757558107, 0.012217000126838684, -0.007329999934881926, 0.3515335023403168, 0.6280218362808228, 0.3406389355659485, 9.550702095031738, 0.0, 0.0, 1.0, 0.0, 0.0, 0.0, 1.0, 0.0, 0.0, 0.0, 1.0, 0.0
1507551, 6.179999828338623, 99.99500274658203, 6.661618232727051, 7.283751010894775, 0.37806499004364014, -0.007329999934881926, 0.0024429999757558107, -0.007329999934881926, 0.6682552099227905, 1.6867610216140747, 1.0675878524780273, 8.793339729309082, 0.0, 0.0, 1.0, 0.0, 0.0, 0.0, 1.0, 0.0, 0.0, 0.0, 1.0, 0.0
1507561, 6.170000076293945, 100.0, 6.637689113616943, 7.298108100891113, 0.31585198640823364, 0.0, 0.007329999934881926, -0.007329999934881926, 0.444843590259552, 0.8803906440734863, 0.4753625988960266, 9.378747940063477, 0.0, 0.0, 1.0, 0.0, 0.0, 0.0, 1.0, 0.0, 0.0, 0.0, 1.0, 0.0
1507571, 6.170000076293945, 100.0009994506836, 6.647261142730713, 7.298108100891113, 0.4594210088253021, 0.0024429999757558107, 0.019547000527381897, -0.007329999934881926, 0.2093721479177475, 0.05461376905441284, -0.11339259147644043, 9.974244117736816, 0.0, 0.0, 1.0, 0.0, 0.0, 0.0, 1.0, 0.0, 0.0, 0.0, 1.0, 0.0
1507581, 6.170000076293945, 99.9990005493164, 6.618546962738037, 7.3459649085998535, 0.7226319909095764, 0.00977300014346838, 0.019547000527381897, -0.0048859999515116215, -0.03101024031639099, -0.7655724287033081, -0.6873504519462585, 10.561724662780762, 0.0, 0.0, 1.0, 0.0, 0.0, 0.0, 1.0, 0.0, 0.0, 0.0, 1.0, 0.0
1507591, 6.179999828338623, 100.00499725341797, 6.5659050941467285, 7.403392791748047, 0.5742769837379456, 0.0024429999757558107, 0.0048859999515116215, -0.0048859999515116215, -0.021115735173225403, -0.7126644253730774, -0.6412038207054138, 10.51898193359375, 0.0, 0.0, 1.0, 0.0, 0.0, 0.0, 1.0, 0.0, 0.0, 0.0, 1.0, 0.0
1507601, 6.170000076293945, 100.0, 6.541975975036621, 7.427320957183838, 0.11006899923086166, -0.017103999853134155, -0.00977300014346838, 0.0048859999515116215, 0.13011595606803894, -0.18060511350631714, -0.2552460730075836, 10.133030891418457, 0.0, 0.0, 1.0, 0.0, 0.0, 0.0, 1.0, 0.0, 0.0, 0.0, 1.0, 0.0
1507611, 6.170000076293945, 100.00299835205078, 6.666402816772461, 7.317251205444336, 0.3206380009651184, -0.019547000527381897, -0.007329999934881926, 0.007329999934881926, -0.10039021074771881, -0.9606136083602905, -0.8026756048202515, 10.690590858459473, 0.0, 0.0, 1.0, 0.0, 0.0, 0.0, 1.0, 0.0, 0.0, 0.0, 1.0, 0.0
1507621, 6.170000076293945, 99.9990005493164, 6.6999030113220215, 7.269394874572754, 0.3876369893550873, -0.007329999934881926, 0.0024429999757558107, 0.0048859999515116215, 0.19377467036247253, 0.06420987844467163, -0.0721709132194519, 9.949975967407227, 0.0, 0.0, 1.0, 0.0, 0.0, 0.0, 1.0, 0.0, 0.0, 0.0, 1.0, 0.0
1507631, 6.179999828338623, 100.00800323486328, 6.6759748458862305, 7.293323040008545, 0.3014949858188629, -0.007329999934881926, 0.0048859999515116215, 0.0024429999757558107, -0.1441871076822281, -1.0876331329345703, -0.8972606062889099, 10.775045394897461, 0.0, 0.0, 1.0, 0.0, 0.0, 0.0, 1.0, 0.0, 0.0, 0.0, 1.0, 0.0
1507641, 6.170000076293945, 100.00299835205078, 6.62811803817749, 7.312465190887451, 0.4594210088253021, -0.007329999934881926, 0.007329999934881926, 0.0048859999515116215, -0.11569146066904068, -0.9626028537750244, -0.8208431005477905, 10.678366661071777, 0.0, 0.0, 1.0, 0.0, 0.0, 0.0, 1.0, 0.0, 0.0, 0.0, 1.0, 0.0
1507651, 6.170000076293945, 100.00199890136719, 6.714260101318359, 7.235895156860352, 0.6508470177650452, -0.00977300014346838, 0.0, 0.007329999934881926, -0.0373372882604599, -0.6715700626373291, -0.5998588800430298, 10.464094161987305, 0.0, 0.0, 1.0, 0.0, 0.0, 0.0, 1.0, 0.0, 0.0, 0.0, 1.0, 0.0
1507661, 6.179999828338623, 100.00599670410156, 6.757330894470215, 7.202395915985107, 0.7178459763526917, -0.014659999869763851, -0.00977300014346838, 0.007329999934881926, -0.13675977289676666, -0.9926368594169617, -0.8191277980804443, 10.690131187438965, 0.0, 0.0, 1.0, 0.0, 0.0, 0.0, 1.0, 0.0, 0.0, 0.0, 1.0, 0.0
1507671, 6.170000076293945, 100.00700378417969, 6.680759906768799, 7.250251770019531, 0.39242199063301086, -0.0024429999757558107, -0.0024429999757558107, 0.0048859999515116215, -0.2983721196651459, -1.5163679122924805, -1.2082586288452148, 11.059015274047852, 0.0, 0.0, 1.0, 0.0, 0.0, 0.0, 1.0, 0.0, 0.0, 0.0, 1.0, 0.0
1507681, 6.170000076293945, 100.00299835205078, 6.5994038581848145, 7.36510705947876, 0.3062810003757477, -0.0024429999757558107, -0.0024429999757558107, 0.0048859999515116215, -0.202165886759758, -1.1496262550354004, -0.9138755798339844, 10.788227081298828, 0.0, 0.0, 1.0, 0.0, 0.0, 0.0, 1.0, 0.0, 0.0, 0.0, 1.0, 0.0
1507691, 6.179999828338623, 100.00199890136719, 6.570690155029297, 7.3363938331604, 0.17706799507141113, -0.012217000126838684, -0.012217000126838684, 0.007329999934881926, -0.04205714166164398, -0.575214147567749, -0.5348246097564697, 10.36870288848877, 0.0, 0.0, 1.0, 0.0, 0.0, 0.0, 1.0, 0.0, 0.0, 0.0, 1.0, 0.0
1507701, 6.170000076293945, 100.00199890136719, 6.6759748458862305, 7.355535984039307, 0.27278101444244385, -0.019547000527381897, -0.014659999869763851, 0.00977300014346838, 0.11766780912876129, -0.0179060697555542, -0.04655879735946655, 9.968152046203613, 0.0, 0.0, 1.0, 0.0, 0.0, 0.0, 1.0, 0.0, 0.0, 0.0, 1.0, 0.0
1507711, 6.159999847412109, 100.0, 6.786044120788574, 7.17368221282959, 0.33499500155448914, -0.019547000527381897, -0.014659999869763851, 0.012217000126838684, 0.3525269329547882, 0.7806819677352905, 0.477267861366272, 9.393853187561035, 0.0, 0.0, 1.0, 0.0, 0.0, 0.0, 1.0, 0.0, 0.0, 0.0, 1.0, 0.0
1507721, 6.170000076293945, 100.0009994506836, 6.86261510848999, 7.073183059692383, 0.31106600165367126, -0.024434000253677368, -0.019547000527381897, 0.007329999934881926, 0.15845820307731628, 0.09906762838363647, -0.031162261962890625, 9.885293960571289, 0.0, 0.0, 1.0, 0.0, 0.0, 0.0, 1.0, 0.0, 0.0, 0.0, 1.0, 0.0
1507731, 6.170000076293945, 99.99700164794922, 6.920042037963867, 7.0923261642456055, 0.3014949858188629, -0.00977300014346838, -0.0024429999757558107, 0.007329999934881926, 0.22987860441207886, 0.33819860219955444, 0.19277121126651764, 9.715356826782227, 0.0, 0.0, 1.0, 0.0, 0.0, 0.0, 1.0, 0.0, 0.0, 0.0, 1.0, 0.0
1507741, 6.170000076293945, 99.99500274658203, 6.991827011108398, 7.030111789703369, 0.6891319751739502, 0.012217000126838684, 0.014659999869763851, -0.0024429999757558107, 0.24353425204753876, 0.37502047419548035, 0.2244349718093872, 9.690560340881348, 0.0, 0.0, 1.0, 0.0, 0.0, 0.0, 1.0, 0.0, 0.0, 0.0, 1.0, 0.0
1507751, 6.170000076293945, 100.0009994506836, 38.811580657958984, 40.16592025756836, 0.3445659875869751, 0.16615499556064606, -0.014659999869763851, -0.03909499943256378, 0.057723551988601685, -0.2663021385669708, 44.168704986572266, 11.581130027770996, 0.0, 0.0, 1.0, 0.0, 0.0, 0.0, 1.0, 0.0, 0.0, 0.0, 1.0, 0.0
1507761, 6.170000076293945, 100.0009994506836, 105.28419494628906, 115.55419158935547, 1.5266199111938477, 0.7696899771690369, -0.21746699512004852, 0.09773799777030945, 0.0951496958732605, 0.3061579465866089, 141.33523559570312, 14.611900329589844, 0.0, 0.0, 1.0, 0.0, 0.0, 0.0, 1.0, 0.0, 0.0, 0.0, 1.0, 0.0
1507771, 6.170000076293945, 99.98300170898438, 117.37751770019531, 120.44990539550781, -7.034897804260254, 0.7061600089073181, 0.014659999869763851, 0.046424999833106995, 0.5677309036254883, 3.291929244995117, 154.27870178222656, 13.865200996398926, 0.0, 0.0, 1.0, 0.0, 0.0, 0.0, 1.0, 0.0, 0.0, 0.0, 1.0, 0.0
1507781, 6.170000076293945, 99.98699951171875, 119.35398864746094, 122.15837860107422, -10.604989051818848, 0.474031001329422, -0.06352899968624115, 0.02932099997997284, 0.7002317309379578, 5.147086143493652, 157.0463409423828, 13.723184585571289, 0.0, 0.0, 1.0, 0.0, 0.0, 0.0, 1.0, 0.0, 0.0, 0.0, 1.0, 0.0
1507791, 6.159999847412109, 99.99199676513672, 116.47782135009766, 118.60264587402344, -10.068997383117676, 1.0775660276412964, 0.5742130279541016, -0.06352899968624115, 0.6709046363830566, 6.416079521179199, 152.43850708007812, 13.797905921936035, 0.0, 0.0, 1.0, 0.0, 0.0, 0.0, 1.0, 0.0, 0.0, 0.0, 1.0, 0.0
1507801, 6.170000076293945, 99.99299621582031, 117.85608673095703, 118.88978576660156, -15.438490867614746, 0.2443459928035736, 0.2028069943189621, -0.051311999559402466, 0.6164413094520569, 7.511295318603516, 153.2602996826172, 14.141866683959961, 0.0, 0.0, 1.0, 0.0, 0.0, 0.0, 1.0, 0.0, 0.0, 0.0, 1.0, 0.0
1507811, 6.179999828338623, 99.99099731445312, 122.8235855102539, 121.56974792480469, -8.030311584472656, 0.07330299913883209, 0.3665190041065216, -0.06352899968624115, 0.6024852991104126, 8.7151517868042, 158.2550506591797, 14.545848846435547, 0.0, 0.0, 1.0, 0.0, 0.0, 0.0, 1.0, 0.0, 0.0, 0.0, 1.0, 0.0
1507821, 6.170000076293945, 99.98799896240234, 123.85728454589844, 123.46007537841797, -5.111069202423096, -0.06597299873828888, 0.28832799196243286, -0.10018099844455719, 0.9139603972434998, 11.033464431762695, 160.79225158691406, 14.08318042755127, 0.0, 0.0, 1.0, 0.0, 0.0, 0.0, 1.0, 0.0, 0.0, 0.0, 1.0, 0.0
1507831, 6.170000076293945, 99.98200225830078, 122.92887115478516, 125.1781234741211, -1.1294119358062744, 0.632856011390686, 0.9920439720153809, -0.12950299680233002, 1.3255903720855713, 13.6383638381958, 162.0508575439453, 13.386103630065918, 0.0, 0.0, 1.0, 0.0, 0.0, 0.0, 1.0, 0.0, 0.0, 0.0, 1.0, 0.0
1507841, 6.179999828338623, 99.98100280761719, 120.74661254882812, 128.90614318847656, -6.364908218383789, 1.1044440269470215, 1.2754859924316406, -0.11239899694919586, 1.749910593032837, 16.210229873657227, 163.79058837890625, 12.738263130187988, 0.0, 0.0, 1.0, 0.0, 0.0, 0.0, 1.0, 0.0, 0.0, 0.0, 1.0, 0.0
1507851, 6.170000076293945, 99.96800231933594, 120.91889953613281, 129.70533752441406, -9.202795028686523, 1.558927059173584, 1.5687010288238525, 0.048868998885154724, 2.3638038635253906, 19.356237411499023, 165.53787231445312, 11.678772926330566, 0.0, 0.0, 1.0, 0.0, 0.0, 0.0, 1.0, 0.0, 0.0, 0.0, 1.0, 0.0
1507861, 6.170000076293945, 99.96900177001953, 121.47882080078125, 129.69577026367188, -15.036497116088867, 1.561371088027954, 1.4953969717025757, 0.051311999559402466, 2.597938299179077, 21.121416091918945, 165.9941864013672, 11.612227439880371, 0.0, 0.0, 1.0, 0.0, 0.0, 0.0, 1.0, 0.0, 0.0, 0.0, 1.0, 0.0
1507871, 6.170000076293945, 99.97000122070312, 124.39327239990234, 126.36017608642578, -16.596616744995117, 1.6151270866394043, 1.6077959537506104, 0.10751199722290039, 2.9234719276428223, 23.141782760620117, 165.9653778076172, 11.344650268554688, 0.0, 0.0, 1.0, 0.0, 0.0, 0.0, 1.0, 0.0, 0.0, 0.0, 1.0, 0.0
1507881, 6.179999828338623, 99.96900177001953, 130.07862854003906, 123.86206817626953, 3.4935200214385986, 1.2363899946212769, 1.7861690521240234, -0.1685979962348938, 2.9239718914031982, 23.988231658935547, 167.56085205078125, 11.99763298034668, 0.0, 0.0, 1.0, 0.0, 0.0, 0.0, 1.0, 0.0, 0.0, 0.0, 1.0, 0.0
1507891, 6.170000076293945, 99.96399688720703, 125.87203979492188, 127.32687377929688, -6.766901969909668, 1.4636319875717163, 1.3390159606933594, -0.2638930082321167, 3.04516339302063, 25.231840133666992, 166.74862670898438, 12.291092872619629, 0.0, 0.0, 1.0, 0.0, 0.0, 0.0, 1.0, 0.0, 0.0, 0.0, 1.0, 0.0
1507901, 6.170000076293945, 99.95500183105469, 124.5368423461914, 130.05947875976562, -11.825328826904297, 1.2119560241699219, 1.1850780248641968, -0.13683299720287323, 3.4011504650115967, 27.223438262939453, 167.93521118164062, 12.089499473571777, 0.0, 0.0, 1.0, 0.0, 0.0, 0.0, 1.0, 0.0, 0.0, 0.0, 1.0, 0.0
1507911, 6.179999828338623, 99.9540023803711, 128.05908203125, 131.9689483642578, -9.700502395629883, 0.6963859796524048, 0.8772019743919373, -0.1221729964017868, 3.6533191204071045, 28.806102752685547, 171.58119201660156, 12.2783842086792, 0.0, 0.0, 1.0, 0.0, 0.0, 0.0, 1.0, 0.0, 0.0, 0.0, 1.0, 0.0
1507921, 6.170000076293945, 99.9530029296875, 133.35679626464844, 133.22756958007812, -6.470191955566406, 0.7599160075187683, 0.91874098777771, -0.051311999559402466, 3.902587652206421, 30.3609619140625, 175.95565795898438, 12.538263320922852, 0.0, 0.0, 1.0, 0.0, 0.0, 0.0, 1.0, 0.0, 0.0, 0.0, 1.0, 0.0
1507931, 6.170000076293945, 99.94300079345703, 137.3623809814453, 137.40066528320312, -6.757330894470215, 1.043357014656067, 1.0824520587921143, -0.09773799777030945, 4.27527379989624, 32.325557708740234, 181.7031707763672, 12.571564674377441, 0.0, 0.0, 1.0, 0.0, 0.0, 0.0, 1.0, 0.0, 0.0, 0.0, 1.0, 0.0
1507941, 6.170000076293945, 99.94400024414062, 136.223388671875, 137.15658569335938, -6.910470962524414, 0.9920439720153809, 0.9773839712142944, -0.00977300014346838, 4.369688034057617, 33.33370590209961, 180.18954467773438, 13.12127685546875, 0.0, 0.0, 1.0, 0.0, 0.0, 0.0, 1.0, 0.0, 0.0, 0.0, 1.0, 0.0
1507951, 6.179999828338623, 99.93199920654297, 135.79747009277344, 135.93624877929688, -5.848057746887207, 0.9749400019645691, 0.9285140037536621, 0.16126799583435059, 4.943162441253662, 35.92133331298828, 179.62533569335938, 12.521814346313477, 0.0, 0.0, 1.0, 0.0, 0.0, 0.0, 1.0, 0.0, 0.0, 0.0, 1.0, 0.0
1507961, 6.159999847412109, 99.9229965209961, 135.2471160888672, 135.4624786376953, -6.130411148071289, 0.9529489874839783, 0.8772019743919373, 0.23945899307727814, 5.857663154602051, 39.5748176574707, 180.2540283203125, 11.168025016784668, 0.0, 0.0, 1.0, 0.0, 0.0, 0.0, 1.0, 0.0, 0.0, 0.0, 1.0, 0.0
1507971, 6.170000076293945, 99.91200256347656, 135.82618713378906, 135.68739318847656, -6.254837989807129, 0.9578359723091125, 0.8283330202102661, 0.3176490068435669, 6.7688422203063965, 43.0990104675293, 182.03622436523438, 9.951667785644531, 0.0, 0.0, 1.0, 0.0, 0.0, 0.0, 1.0, 0.0, 0.0, 0.0, 1.0, 0.0
1507981, 6.179999828338623, 99.91600036621094, 134.87384033203125, 134.68719482421875, -6.125625133514404, 0.9407320022583008, 0.7819070219993591, 0.3933970034122467, 7.078500747680664, 44.47591781616211, 180.38470458984375, 10.22658920288086, 0.0, 0.0, 1.0, 0.0, 0.0, 0.0, 1.0, 0.0, 0.0, 0.0, 1.0, 0.0
1507991, 6.179999828338623, 99.91200256347656, 134.37612915039062, 134.57713317871094, -5.972485065460205, 0.9065229892730713, 0.6988289952278137, 0.474031001329422, 7.6409687995910645, 46.64926528930664, 180.23126220703125, 9.948287010192871, 0.0, 0.0, 1.0, 0.0, 0.0, 0.0, 1.0, 0.0, 0.0, 0.0, 1.0, 0.0
1508001, 6.179999828338623, 99.91100311279297, 133.73484802246094, 134.02198791503906, -5.972485065460205, 0.8503239750862122, 0.5742130279541016, 0.5644389986991882, 7.849672794342041, 47.544532775878906, 178.76234436035156, 10.572059631347656, 0.0, 0.0, 1.0, 0.0, 0.0, 0.0, 1.0, 0.0, 0.0, 0.0, 1.0, 0.0
1508011, 6.159999847412109, 99.90299987792969, 133.22756958007812, 133.19886779785156, -5.809772968292236, 0.8527669906616211, 0.5180130004882812, 0.6426299810409546, 8.23640251159668, 49.000152587890625, 177.61317443847656, 10.780694961547852, -0.5871763229370117, -0.8469085693359375, 0.9999659657478333, -0.00640126271173358, 0.005203786306083202, 0.006445659790188074, 0.9999426007270813, -0.008557980880141258, -0.0051486911252141, 0.008591240271925926, 0.9999498128890991, 0.0
1508021, 6.170000076293945, 99.88999938964844, 132.8590850830078, 131.43295288085938, -5.690132141113281, 0.7672460079193115, 0.3249799907207489, 0.7476980090141296, 8.928337097167969, 51.43256378173828, 176.62254333496094, 10.263278007507324, -0.21491527557373047, -0.9425048828125, 0.9998680949211121, -0.013822011649608612, 0.008527642115950584, 0.013959214091300964, 0.9997705817222595, -0.01624343916773796, -0.008301149122416973, 0.016360346227884293, 0.9998316764831543, 0.0
1508031, 6.159999847412109, 99.88200378417969, 131.92588806152344, 131.1171112060547, -5.795415878295898, 0.6866120100021362, 0.2028069943189621, 0.8063409924507141, 9.61020278930664, 53.73832321166992, 176.15232849121094, 9.848981857299805, 0.42487144470214844, -1.511199951171875, 0.9997050166130066, -0.02181471697986126, 0.010674705728888512, 0.02205687016248703, 0.9994893670082092, -0.023117760196328163, -0.01016494631767273, 0.023346396163105965, 0.9996757507324219, 0.0
1508041, 6.170000076293945, 99.88800048828125, 131.4281768798828, 131.09796142578125, -5.54177713394165, 0.5913169980049133, 0.0879639983177185, 0.8967490196228027, 9.77294635772705, 54.19625473022461, 174.8628387451172, 10.771904945373535, 0.3492870330810547, -0.8863525390625, 0.9994597434997559, -0.0307091623544693, 0.0117067601531744, 0.03103826753795147, 0.9990958571434021, -0.029050659388303757, -0.01080403197556734, 0.029398329555988312, 0.999509334564209, 0.0
1508051, 6.179999828338623, 99.9020004272461, 131.50953674316406, 131.57174682617188, -6.049055099487305, 0.5228999853134155, 0.0048859999515116215, 0.9724969863891602, 9.354805946350098, 52.651153564453125, 172.88084411621094, 13.144888877868652, -0.8438930511474609, -0.3673248291015625, 0.9991136789321899, -0.04036222770810127, 0.011939301155507565, 0.04075077921152115, 0.9985796809196472, -0.03431910648941994, -0.01053714845329523, 0.03477523475885391, 0.9993395805358887, 0.0
1508061, 6.179999828338623, 99.9000015258789, 129.96376037597656, 130.65289306640625, -5.948555946350098, 0.4202750027179718, -0.0879639983177185, 1.0335830450057983, 9.190058708190918, 52.00050735473633, 169.4912567138672, 14.79616641998291, -2.1322460174560547, 0.3917999267578125, 0.998653769493103, -0.05063466727733612, 0.011250239796936512, 0.05103389173746109, 0.9979504942893982, -0.03860221430659294, -0.009272562339901924, 0.039124395698308945, 0.9991912841796875, 0.0
1508071, 6.170000076293945, 99.90299987792969, 129.0544891357422, 130.33226013183594, -5.934199810028076, 0.32986700534820557, -0.18570199608802795, 1.1019999980926514, 8.991806030273438, 51.224769592285156, 166.87608337402344, 16.539836883544922, -1.5403518676757812, -1.741943359375, 0.9980549216270447, -0.06159912422299385, 0.009580247104167938, 0.06194954365491867, 0.9971931576728821, -0.04204506054520607, -0.0069634136743843555, 0.042556777596473694, 0.9990697503089905, 0.0
1508081, 6.179999828338623, 99.9020004272461, 129.40863037109375, 130.56675720214844, -5.9629130363464355, 0.2492319941520691, -0.28588399291038513, 1.1484260559082031, 8.9121675491333, 50.852970123291016, 165.8141632080078, 18.01531219482422, -1.5993976593017578, -0.873321533203125, 0.9973055124282837, -0.07303328812122345, 0.006895197089761496, 0.07326968014240265, 0.9963065981864929, -0.04476984590291977, -0.003600028343498707, 0.045154426246881485, 0.9989734888076782, 0.0
1508091, 6.170000076293945, 99.89399719238281, 128.00164794921875, 130.51890563964844, -5.4269208908081055, 0.048868998885154724, -0.6157519817352295, 1.1801910400390625, 9.151531219482422, 51.56783676147461, 164.14434814453125, 18.659421920776367, -1.3209915161132812, 0.4144134521484375, 0.9963980317115784, -0.08479347825050354, 0.000795499887317419, 0.08474085479974747, 0.9953501224517822, -0.04579024016857147, 0.003090928541496396, 0.04569270834326744, 0.9989506602287292, 0.0
1508101, 6.170000076293945, 99.89399719238281, 127.15937805175781, 130.451904296875, -4.871786117553711, -0.051311999559402466, -0.7770199775695801, 1.1972949504852295, 9.285988807678223, 51.88534927368164, 162.57171630859375, 19.588279724121094, -0.6106281280517578, -1.0278472900390625, 0.9952875971794128, -0.09671273827552795, -0.006988572888076305, 0.09629238396883011, 0.9942880272865295, -0.04603036120533943, 0.011400393210351467, 0.045140478760004044, 0.9989154934883118, 0.0
1508111, 6.170000076293945, 99.88899993896484, 127.00144958496094, 130.51890563964844, -4.838286876678467, -0.17837199568748474, -0.9602789878845215, 1.187520980834961, 9.547406196594238, 52.60824203491211, 161.8611602783203, 20.233339309692383, -0.8570575714111328, -0.645111083984375, 0.9939554333686829, -0.10850104689598083, -0.01672184094786644, 0.10765198618173599, 0.9931566119194031, -0.04528427869081497, 0.021520815789699554, 0.043210387229919434, 0.9988341331481934, 0.0
1508121, 6.170000076293945, 99.89099884033203, 126.3745346069336, 131.13624572753906, -4.508077144622803, -0.2907710075378418, -1.1142170429229736, 1.1728609800338745, 9.628294944763184, 52.68583679199219, 160.74996948242188, 21.3376522064209, -0.5844545364379883, -0.0656280517578125, 0.9923653602600098, -0.12008289247751236, -0.028118742629885674, 0.11879493296146393, 0.9919562339782715, -0.043706946074962616, 0.033141039311885834, 0.040032871067523956, 0.9986485242843628, 0.0
1508131, 6.170000076293945, 99.87799835205078, 125.9246826171875, 131.76795959472656, -3.5222339630126953, -0.3787359893321991, -1.2681549787521362, 1.1655299663543701, 10.142288208007812, 54.22227478027344, 160.82334899902344, 21.39258575439453, -0.9975967407226562, -0.00689697265625, 0.9904599785804749, -0.13150615990161896, -0.04116596281528473, 0.12980566918849945, 0.9906672835350037, -0.04157595336437225, 0.04624929279088974, 0.03583572804927826, 0.9982868432998657, 0.0
1508141, 6.170000076293945, 99.86900329589844, 126.21182250976562, 131.6483154296875, -2.622533082962036, -0.43004900217056274, -1.382997989654541, 1.1215479373931885, 10.755041122436523, 56.04294967651367, 161.09036254882812, 21.24401092529297, -0.04600334167480469, 0.1285858154296875, 0.9882561564445496, -0.14239448308944702, -0.055435389280319214, 0.1403476446866989, 0.9893244504928589, -0.03923371434211731, 0.06043028086423874, 0.030992701649665833, 0.9976910352706909, 0.0
1508151, 6.179999828338623, 99.86000061035156, 125.4748306274414, 131.6483154296875, -1.6606180667877197, -0.5228999853134155, -1.4905099868774414, 1.0531309843063354, 11.437435150146484, 58.04109573364258, 160.8643341064453, 20.950244903564453, 0.1375255584716797, 0.118682861328125, 0.9857620000839233, -0.1524592638015747, -0.07091499119997025, 0.15019425749778748, 0.9879904985427856, -0.036276377737522125, 0.07559403777122498, 0.02510879933834076, 0.9968223571777344, 0.0
1508161, 6.170000076293945, 99.84500122070312, 124.09178161621094, 132.18431091308594, 0.39720800518989563, -0.8356630206108093, -1.7739520072937012, 0.9651659727096558, 12.362896919250488, 60.795433044433594, 161.1054229736328, 20.110393524169922, 0.25069332122802734, -0.5208740234375, 0.9828234314918518, -0.16128979623317719, -0.08968387544155121, 0.1591266393661499, 0.9867768883705139, -0.030815692618489265, 0.09346826374530792, 0.01601523905992508, 0.9954932928085327, 0.0
1508171, 6.179999828338623, 99.84700012207031, 122.852294921875, 131.6100311279297, 1.220339059829712, -1.0531309843063354, -1.8496990203857422, 0.8943060040473938, 12.810111999511719, 61.832618713378906, 159.45294189453125, 20.481765747070312, 0.7416887283325195, -0.600006103515625, 0.9795035719871521, -0.16901758313179016, -0.1095685362815857, 0.1674415022134781, 0.9856017231941223, -0.023496881127357483, 0.11196234077215195, 0.004668891429901123, 0.9937013387680054, 0.0
1508181, 6.179999828338623, 99.83999633789062, 121.8616714477539, 131.6387481689453, 1.7228319644927979, -1.2217299938201904, -1.9010119438171387, 0.796567976474762, 13.32153606414795, 63.036598205566406, 158.51284790039062, 20.740442276000977, -0.37148475646972656, -1.283782958984375, 0.9758523106575012, -0.17534378170967102, -0.13025444746017456, 0.1749219447374344, 0.9844713807106018, -0.014763248153030872, 0.13082043826580048, -0.008377689868211746, 0.9913705587387085, 0.0
1508191, 6.170000076293945, 99.84400177001953, 120.94282531738281, 131.61480712890625, 1.751546025276184, -1.4172070026397705, -1.9352200031280518, 0.6939420104026794, 13.457143783569336, 62.91276550292969, 156.64202880859375, 21.944557189941406, -0.25281715393066406, -0.6828460693359375, 0.9718914031982422, -0.18010881543159485, -0.1516161561012268, 0.1815628558397293, 0.9833696484565735, -0.004314958117902279, 0.14987191557884216, -0.023334279656410217, 0.9884299635887146, 0.0
1508201, 6.170000076293945, 99.83699798583984, 121.46446228027344, 132.399658203125, 1.9812569618225098, -1.5564839839935303, -1.9278900623321533, 0.5668820142745972, 13.788657188415527, 63.4407958984375, 156.7895965576172, 22.717533111572266, -1.1063127517700195, -0.6680908203125, 0.9677311778068542, -0.18308435380458832, -0.17313581705093384, 0.1871616095304489, 0.9823011755943298, 0.007382015697658062, 0.16872002184391022, -0.039548277854919434, 0.984870195388794, 0.0
1508211, 6.170000076293945, 99.83200073242188, 121.06725311279297, 132.08859252929688, 2.1870388984680176, -1.7104220390319824, -1.9278900623321533, 0.43004900217056274, 14.148139953613281, 64.04737854003906, 155.61822509765625, 23.391029357910156, -0.6722288131713867, 0.9224700927734375, 0.9633936882019043, -0.18409553170204163, -0.194887176156044, 0.191649928689003, 0.9812495708465576, 0.020476730540394783, 0.18746331334114075, -0.05707736685872078, 0.9806118011474609, 0.0
1508221, 6.170000076293945, 99.8280029296875, 120.44990539550781, 130.34182739257812, 2.2061820030212402, -1.8936810493469238, -1.9303330183029175, 0.2785539925098419, 14.49842643737793, 64.59054565429688, 153.2749481201172, 24.065059661865234, -0.6223106384277344, -0.4989166259765625, 0.9589074850082397, -0.18288081884384155, -0.21691158413887024, 0.1949175000190735, 0.9801850914955139, 0.03527131676673889, 0.20616307854652405, -0.07610189914703369, 0.9755537509918213, 0.0
1508231, 6.170000076293945, 99.81300354003906, 119.7368392944336, 129.22677612304688, 2.612962007522583, -2.3726000785827637, -2.0109670162200928, 0.06108599901199341, 15.233799934387207, 66.40137481689453, 152.2211456298828, 23.825410842895508, -0.6557693481445312, -1.6727294921875, 0.9541981220245361, -0.1780475676059723, -0.24042624235153198, 0.19641651213169098, 0.9790027737617493, 0.05453299731016159, 0.22566848993301392, -0.09925907850265503, 0.9691342711448669, 0.0
1508241, 6.170000076293945, 99.80899810791016, 119.26785278320312, 128.8247833251953, 1.6271190643310547, -2.5656330585479736, -2.0036370754241943, -0.021990999579429626, 15.792204856872559, 67.53866577148438, 151.3472137451172, 24.082054138183594, 0.18003559112548828, -1.2961578369140625, 0.949182391166687, -0.17137648165225983, -0.26397454738616943, 0.19750317931175232, 0.9773797392845154, 0.07563843578100204, 0.24504071474075317, -0.12393061071634293, 0.9615591764450073, 0.0
1508251, 6.170000076293945, 99.81099700927734, 119.49755859375, 127.78150939941406, 0.43549299240112305, -2.790431022644043, -2.0598371028900146, -0.09529399871826172, 16.03472900390625, 67.55482482910156, 149.71658325195312, 25.137317657470703, -0.2491750717163086, -0.6185760498046875, 0.9436541795730591, -0.16278117895126343, -0.2881295680999756, 0.19836679100990295, 0.9751395583152771, 0.09875869750976562, 0.2648904621601105, -0.15034952759742737, 0.9524850845336914, 0.0
1508261, 6.170000076293945, 99.81400299072266, 119.95698547363281, 126.8435287475586, 0.401993989944458, -2.944369077682495, -2.1404709815979004, -0.17348499596118927, 16.057056427001953, 66.80581665039062, 147.7783203125, 26.73670768737793, -0.96929931640625, -0.576568603515625, 0.9374936819076538, -0.15231163799762726, -0.3128998875617981, 0.1990502029657364, 0.9722231030464172, 0.12313020974397659, 0.28545430302619934, -0.1777167022228241, 0.9417708516120911, 0.0
1508271, 6.170000076293945, 99.8030014038086, 121.41181945800781, 127.03016662597656, 0.5551339983940125, -3.0567688941955566, -2.2528700828552246, -0.22724099457263947, 16.468891143798828, 67.38743591308594, 148.25743103027344, 27.41513442993164, -1.454092025756836, -0.3395843505859375, 0.9304878115653992, -0.14024604856967926, -0.3384125828742981, 0.1999000906944275, 0.9685350060462952, 0.14825506508350372, 0.3069722354412079, -0.2055983543395996, 0.9292454123497009, 0.0
1508281, 6.170000076293945, 99.79499816894531, 119.57891845703125, 123.46007537841797, 0.17706799507141113, -3.1496200561523438, -2.379930019378662, -0.2492319941520691, 16.979881286621094, 68.2909927368164, 144.151123046875, 27.711336135864258, -0.5801601409912109, 1.1599578857421875, 0.9224523305892944, -0.12687712907791138, -0.36466923356056213, 0.2013232707977295, 0.9639697074890137, 0.17387095093727112, 0.32946982979774475, -0.23380416631698608, 0.9147594571113586, 0.0
1508291, 6.170000076293945, 99.78600311279297, 118.7270736694336, 122.70872497558594, -1.8281159400939941, -3.2888970375061035, -2.497215986251831, -0.21258099377155304, 17.589204788208008, 69.45781707763672, 142.85057067871094, 27.872697830200195, -0.374786376953125, -3.81805419921875, 0.9132624864578247, -0.11250395327806473, -0.39152824878692627, 0.20395153760910034, 0.9582546353340149, 0.20037832856178284, 0.35264042019844055, -0.26285091042518616, 0.8980833292007446, 0.0
1508301, 6.170000076293945, 99.77999877929688, 117.5785140991211, 122.22058868408203, -2.100898027420044, -3.4721570014953613, -2.8954999446868896, -0.10751199722290039, 18.15607261657715, 70.42784881591797, 141.40074157714844, 28.16522216796875, -0.1778106689453125, -1.141571044921875, 0.9016022086143494, -0.09742856025695801, -0.4214511215686798, 0.20911894738674164, 0.9510576725006104, 0.22750410437583923, 0.3786589801311493, -0.29325172305107117, 0.8778499364852905, 0.0
1508311, 6.179999828338623, 99.78199768066406, 118.38250732421875, 120.9236831665039, -1.7084749937057495, -3.540574073791504, -3.1374030113220215, -0.10262499749660492, 18.4005126953125, 70.25452423095703, 139.92372131347656, 29.292028427124023, -0.2967853546142578, -1.1597137451171875, 0.8879772424697876, -0.08105065673589706, -0.45268887281417847, 0.2157052457332611, 0.9427562952041626, 0.25432538986206055, 0.4061620831489563, -0.3234826326370239, 0.8546291589736938, 0.0
1508321, 6.170000076293945, 99.76699829101562, 118.96635437011719, 119.88998413085938, -2.2875380516052246, -3.645642042160034, -3.359757900238037, -0.08307699859142303, 19.072471618652344, 71.52599334716797, 139.52389526367188, 29.373687744140625, -1.027578353881836, -0.3509521484375, 0.872282087802887, -0.06324506551027298, -0.48489585518836975, 0.22392061352729797, 0.9331904053688049, 0.2810957729816437, 0.43472227454185486, -0.3537731170654297, 0.8281671404838562, 0.0
1508331, 6.170000076293945, 99.76000213623047, 119.04292297363281, 118.64571380615234, -2.646461009979248, -3.7262768745422363, -3.574781894683838, -0.026877999305725098, 19.700735092163086, 72.60173797607422, 138.4959716796875, 29.57697105407715, -0.08271026611328125, -0.3188323974609375, 0.8543692827224731, -0.04434908181428909, -0.517770528793335, 0.23419158160686493, 0.9222988486289978, 0.30743908882141113, 0.46390455961227417, -0.38392412662506104, 0.7983699440956116, 0.0
1508341, 6.170000076293945, 99.7509994506836, 118.88021087646484, 117.080810546875, -1.373479962348938, -3.750710964202881, -3.787363052368164, 0.06352899968624115, 20.373292922973633, 73.78137969970703, 137.16610717773438, 29.68606185913086, -0.206817626953125, -0.82635498046875, 0.8341004848480225, -0.024859512224793434, -0.5510520935058594, 0.24689674377441406, 0.9101548194885254, 0.332655668258667, 0.4932731091976166, -0.4135213792324066, 0.7652982473373413, 0.0
1508351, 6.170000076293945, 99.74199676513672, 118.91849517822266, 116.3725357055664, -1.732403039932251, -3.6822938919067383, -3.8948750495910645, 0.17837199568748474, 21.08211326599121, 75.03114318847656, 136.61825561523438, 29.758607864379883, -0.13289642333984375, -1.22332763671875, 0.8119679093360901, -0.005455447360873222, -0.5836766362190247, 0.2619217336177826, 0.8970359563827515, 0.35598182678222656, 0.5216369032859802, -0.4419235587120056, 0.7297933101654053, 0.0
1508361, 6.170000076293945, 99.73600006103516, 118.70314025878906, 117.32966613769531, -1.9286149740219116, -3.6260950565338135, -3.982840061187744, 0.3323099911212921, 21.6904296875, 75.8913803100586, 136.7617645263672, 30.137535095214844, -0.0789031982421875, -0.4763031005859375, 0.7880945801734924, 0.013604368083178997, -0.6154037714004517, 0.2794876992702484, 0.8828538060188293, 0.37743255496025085, 0.5484462976455688, -0.46945053339004517, 0.6919700503349304, 0.0
1508371, 6.170000076293945, 99.73100280761719, 116.18110656738281, 117.56415557861328, -0.8566300272941589, -3.6383118629455566, -4.356688976287842, 0.5742130279541016, 22.209854125976562, 76.42153930664062, 134.59872436523438, 30.687482833862305, -0.32753562927246094, 0.523529052734375, 0.7606876492500305, 0.032124169170856476, -0.648322582244873, 0.3013775944709778, 0.8671203851699829, 0.3965769112110138, 0.574913501739502, -0.49706128239631653, 0.6499263644218445, 0.0
1508381, 6.170000076293945, 99.7229995727539, 115.25747680664062, 116.98509216308594, -0.019142000004649162, -3.645642042160034, -4.532618999481201, 0.6133080124855042, 22.79339599609375, 77.1303939819336, 133.1115264892578, 31.110977172851562, -0.5421180725097656, -1.616455078125, 0.7308160066604614, 0.05175073444843292, -0.6806097626686096, 0.32501283288002014, 0.8504456877708435, 0.41365233063697815, 0.6002285480499268, -0.5235108733177185, 0.6046997308731079, 0.0
1508391, 6.170000076293945, 99.71299743652344, 114.76455688476562, 116.72188568115234, 0.2057819962501526, -3.709172010421753, -4.691443920135498, 0.6304119825363159, 23.481246948242188, 78.15516662597656, 132.3728790283203, 31.313840866088867, -0.41243934631347656, -1.06591796875, 0.698533833026886, 0.07304501533508301, -0.711838960647583, 0.35009127855300903, 0.8327054977416992, 0.42899543046951294, 0.6240882277488708, -0.5488766431808472, 0.5561006665229797, 0.0
1508401, 6.159999847412109, 99.70800018310547, 113.32408142089844, 116.42517852783203, 1.8807580471038818, -3.73116397857666, -4.811172962188721, 0.6475170254707336, 24.044940948486328, 78.71573638916016, 130.63723754882812, 31.82257843017578, -0.19830703735351562, -0.536895751953125, 0.6641055345535278, 0.09572096168994904, -0.7414857149124146, 0.3763881325721741, 0.8141161203384399, 0.44220608472824097, 0.6459839940071106, -0.572758138179779, 0.504630982875824, 0.0
1508411, 6.170000076293945, 99.697998046875, 112.343017578125, 116.43474578857422, 3.909872055053711, -3.775146007537842, -4.933345794677734, 0.6475170254707336, 24.72203826904297, 79.62571716308594, 129.6865234375, 32.085235595703125, -0.49402618408203125, -1.229461669921875, 0.6275231838226318, 0.12003020942211151, -0.7692900896072388, 0.4036943018436432, 0.7947031259536743, 0.45329582691192627, 0.6657665967941284, -0.5950118899345398, 0.45023924112319946, 0.0
1508421, 6.170000076293945, 99.69499969482422, 111.30453491210938, 117.21958923339844, 5.355135917663574, -3.846005916595459, -5.00420618057251, 0.632856011390686, 25.20024871826172, 79.81928253173828, 128.720947265625, 32.87040328979492, -0.25659942626953125, -0.6894989013671875, 0.5892186164855957, 0.1462278962135315, -0.7946311235427856, 0.43158361315727234, 0.77446448802948, 0.4625360071659088, 0.6830494999885559, -0.6154848337173462, 0.3932195007801056, 0.0
1508431, 6.170000076293945, 99.68399810791016, 110.91690063476562, 116.98988342285156, 7.465606212615967, -3.929084062576294, -5.011537075042725, 0.5766559839248657, 25.87131690979004, 80.65242767333984, 127.97306823730469, 33.18225860595703, -0.7142333984375, -0.1807861328125, 0.5497457981109619, 0.174576073884964, -0.8168858885765076, 0.4593706727027893, 0.7535877823829651, 0.47019490599632263, 0.6976802349090576, -0.6337413191795349, 0.3340867757797241, 0.0
1508441, 6.170000076293945, 99.68399810791016, 110.97432708740234, 114.9272689819336, 10.174281120300293, -4.158769130706787, -4.860042095184326, 0.474031001329422, 26.241992950439453, 80.42864227294922, 125.52373504638672, 34.21575927734375, -0.29393959045410156, -0.4369354248046875, 0.5104966163635254, 0.20638030767440796, -0.8347455263137817, 0.48594292998313904, 0.7316451668739319, 0.4780731797218323, 0.7094027400016785, -0.6496936678886414, 0.27321356534957886, 0.0
1508451, 6.179999828338623, 99.68800354003906, 111.07003784179688, 114.29077911376953, 9.82014274597168, -4.302933216094971, -4.701217174530029, 0.4544830024242401, 26.287649154663086, 79.08345031738281, 123.28733825683594, 36.067630767822266, -0.9733028411865234, -1.418792724609375, 0.47193434834480286, 0.24032998085021973, -0.8482447862625122, 0.5118761658668518, 0.7086614370346069, 0.48557278513908386, 0.7178163528442383, -0.6633550524711609, 0.21142269670963287, 0.0
1508461, 6.170000076293945, 99.68099975585938, 110.443115234375, 113.46764373779297, 9.451648712158203, -4.503296852111816, -4.613253116607666, 0.474031001329422, 26.56429672241211, 78.54728698730469, 121.02729034423828, 37.30365753173828, -1.6834163665771484, -0.3853302001953125, 0.433796763420105, 0.2765645980834961, -0.8575150966644287, 0.5377512574195862, 0.6841624975204468, 0.4926909804344177, 0.7229408621788025, -0.6748577952384949, 0.1480647474527359, 0.0
1508471, 6.170000076293945, 99.677001953125, 112.00324249267578, 113.32408142089844, 10.107281684875488, -4.642573833465576, -4.630356788635254, 0.4813610017299652, 26.856910705566406, 78.06145477294922, 120.77794647216797, 38.55044937133789, -1.1451950073242188, -1.026153564453125, 0.39536821842193604, 0.3144814670085907, -0.8630093336105347, 0.5639359951019287, 0.658522367477417, 0.4983208477497101, 0.7250239253044128, -0.6837025284767151, 0.08301156759262085, 0.0
1508481, 6.170000076293945, 99.6729965209961, 110.95996856689453, 110.44790649414062, 9.533004760742188, -4.754973888397217, -4.566826820373535, 0.5204570293426514, 27.156789779663086, 77.61431884765625, 116.9143295288086, 39.65044021606445, -1.0980091094970703, 0.9995269775390625, 0.35764625668525696, 0.35356390476226807, -0.8643386960029602, 0.5901588201522827, 0.6317374110221863, 0.502612829208374, 0.7237411141395569, -0.6898549795150757, 0.017279833555221558, 0.0
1508491, 6.170000076293945, 99.66899871826172, 110.56275939941406, 109.08878326416016, 8.819944381713867, -4.877147197723389, -4.576601028442383, 0.6377429962158203, 27.47139549255371, 77.19449615478516, 114.56917572021484, 40.750511169433594, -1.071298599243164, -2.7693939208984375, 0.32051411271095276, 0.39346638321876526, -0.8616580367088318, 0.6171663999557495, 0.6033291816711426, 0.5050731301307678, 0.7185930013656616, -0.6936697363853455, -0.04945856332778931, 0.0
1508501, 6.170000076293945, 99.66100311279297, 109.53384399414062, 108.73943328857422, 7.8723859786987305, -4.979772090911865, -4.574156761169434, 0.796567976474762, 27.92290687561035, 77.23133850097656, 112.8296890258789, 41.51487731933594, -1.0286235809326172, -1.2476806640625, 0.28453123569488525, 0.4337732493877411, -0.8549166321754456, 0.6449751257896423, 0.5731548070907593, 0.5054701566696167, 0.7092592716217041, -0.6952223181724548, -0.11669239401817322, 0.0
1508511, 6.150000095367432, 99.65799713134766, 105.04969787597656, 109.39984893798828, 7.475176811218262, -5.197239875793457, -4.8404951095581055, 1.0238089561462402, 28.283897399902344, 76.94204711914062, 109.1976089477539, 42.44673538208008, -0.7178173065185547, -0.9771575927734375, 0.24804121255874634, 0.47517910599708557, -0.844203770160675, 0.6750813722610474, 0.5402174592018127, 0.5024237632751465, 0.6947951912879944, -0.6945284008979797, -0.18678826093673706, 0.0
1508521, 6.170000076293945, 99.65599822998047, 104.11170959472656, 109.05049896240234, 7.274179935455322, -5.31696891784668, -5.011537075042725, 1.0482439994812012, 28.551956176757812, 76.31098175048828, 107.07713317871094, 43.65322494506836, -0.9176597595214844, -2.7058563232421875, 0.21128621697425842, 0.5172430276870728, -0.8293476104736328, 0.7055902481079102, 0.5064582228660583, 0.4956226944923401, 0.6763875484466553, -0.6898981928825378, -0.257953941822052, 0.0
1508531, 6.170000076293945, 99.6510009765625, 103.59486389160156, 108.36614990234375, 6.594618797302246, -5.439142227172852, -5.207014083862305, 1.018923044204712, 28.880191802978516, 75.88511657714844, 105.18140411376953, 44.69945526123047, -1.1154193878173828, -0.9158935546875, 0.1740678995847702, 0.5598482489585876, -0.8101049065589905, 0.7361149191856384, 0.4724619686603546, 0.4846791625022888, 0.6540908217430115, -0.6806977987289429, -0.32987213134765625, 0.0
1508541, 6.170000076293945, 99.64199829101562, 103.40821838378906, 108.60064697265625, 5.680560111999512, -5.519776821136475, -5.39516019821167, 1.0067050457000732, 29.385269165039062, 76.05630493164062, 104.58119201660156, 45.331642150878906, -0.9688568115234375, -0.8512725830078125, 0.1368265151977539, 0.602330207824707, -0.7864327430725098, 0.7664497494697571, 0.4385785758495331, 0.4692578613758087, 0.6275610327720642, -0.6669685244560242, -0.4016466736793518, 0.0
1508551, 6.159999847412109, 99.62899780273438, 103.4800033569336, 108.06944274902344, 5.556134223937988, -5.619958877563477, -5.6175150871276855, 0.948062002658844, 30.13212013244629, 77.0377197265625, 104.22101593017578, 45.36769485473633, -0.5700836181640625, 0.03204345703125, 0.09933219850063324, 0.6445966362953186, -0.7580421566963196, 0.7962597608566284, 0.4053727090358734, 0.44904637336730957, 0.5967437028884888, -0.6482036709785461, -0.47299984097480774, 0.0
1508561, 6.170000076293945, 99.6259994506836, 103.0301513671875, 107.14581298828125, 4.527219772338867, -5.712810039520264, -5.852087020874023, 0.901636004447937, 30.65855598449707, 77.2328872680664, 102.67430114746094, 45.94457244873047, -0.04168701171875, -0.324798583984375, 0.06191862002015114, 0.6862133145332336, -0.7247599959373474, 0.8253262639045715, 0.3731348514556885, 0.4237997233867645, 0.5612505674362183, -0.624405026435852, -0.5432459115982056, 0.0
1508571, 6.170000076293945, 99.62000274658203, 108.0215835571289, 111.48160552978516, 5.321637153625488, -5.747017860412598, -6.084216117858887, 0.8478800058364868, 31.164243698120117, 77.3358154296875, 108.38656616210938, 46.811893463134766, -0.5483322143554688, -0.97186279296875, 0.024939049035310745, 0.7263975739479065, -0.6868218779563904, 0.8532332181930542, 0.3425438702106476, 0.39326316118240356, 0.5209323763847351, -0.5958273410797119, -0.6112439036369324, 0.0
1508581, 6.170000076293945, 99.60700225830078, 100.8526840209961, 106.26046752929688, 5.0392842292785645, -5.747017860412598, -6.311458110809326, 0.7599160075187683, 31.919212341308594, 78.33856964111328, 99.87151336669922, 46.59782409667969, -0.5981292724609375, 6.59332275390625, -0.011432759463787079, 0.76459139585495, -0.6444135904312134, 0.8794354200363159, 0.3143922984600067, 0.35742127895355225, 0.4758802056312561, -0.5626343488693237, -0.6760032773017883, 0.0
1508591, 6.170000076293945, 99.59600067138672, 101.40303802490234, 103.83414459228516, 5.120639801025391, -5.842312812805176, -6.497160911560059, 0.6524029970169067, 32.73662185668945, 79.43595886230469, 98.64215850830078, 46.48525619506836, -0.052394866943359375, -8.747344970703125, -0.04667440429329872, 0.8010326027870178, -0.5967979431152344, 0.90333092212677, 0.2888754606246948, 0.31708571314811707, 0.42639657855033875, -0.5243068337440491, -0.7370808720588684, 0.0
1508601, 6.159999847412109, 99.58300018310547, 98.98149871826172, 104.52806091308594, 6.39362096786499, -5.874077796936035, -6.609560012817383, 0.6304119825363159, 33.66425323486328, 80.85865020751953, 97.77108764648438, 46.13445281982422, 0.06389236450195312, -1.3447265625, -0.07926376909017563, 0.8349477052688599, -0.5445907115936279, 0.9245919585227966, 0.26578623056411743, 0.2729220986366272, 0.37262067198753357, -0.4818919897079468, -0.7930535078048706, 0.0
1508611, 6.170000076293945, 99.58499908447266, 100.3501968383789, 102.9631576538086, 7.99681282043457, -5.915616989135742, -6.751280784606934, 0.559552013874054, 34.10002899169922, 80.55231475830078, 96.7141342163086, 47.0504035949707, 0.2824440002441406, -1.22442626953125, -0.10938303172588348, 0.8660113215446472, -0.4879130721092224, 0.9428429007530212, 0.24583573639392853, 0.22496911883354187, 0.31477251648902893, -0.4354182183742523, -0.8434033393859863, 0.0
1508621, 6.170000076293945, 99.58200073242188, 102.723876953125, 100.29755401611328, 13.127023696899414, -5.962042808532715, -6.800149917602539, 0.47158700227737427, 34.446144104003906, 79.94117736816406, 95.38304901123047, 48.17520523071289, -0.8312454223632812, -0.14129638671875, -0.1363668441772461, 0.8938644528388977, -0.42709457874298096, 0.9575551152229309, 0.22944802045822144, 0.17447319626808167, 0.25395163893699646, -0.3851749002933502, -0.8872141242027283, 0.0
1508631, 6.159999847412109, 99.5999984741211, 102.28838348388672, 99.85248565673828, 13.88794231414795, -5.891182899475098, -6.636437892913818, 0.5571079850196838, 33.970462799072266, 76.54391479492188, 91.66201782226562, 51.27447509765625, -1.0217170715332031, -0.2067108154296875, -0.15758708119392395, 0.9179816842079163, -0.3639715611934662, 0.9686923027038574, 0.21530237793922424, 0.12360900640487671, 0.19183498620986938, -0.333097904920578, -0.9231712818145752, 0.0
1508641, 6.170000076293945, 99.61699676513672, 99.73284149169922, 100.823974609375, 13.864013671875, -5.949826240539551, -6.462952136993408, 0.7061600089073181, 33.084373474121094, 71.830322265625, 86.5423812866211, 55.27505111694336, -2.816730499267578, -0.6230621337890625, -0.17243804037570953, 0.9388394355773926, -0.2980685830116272, 0.9765303134918213, 0.20258022844791412, 0.07313507050275803, 0.12904509902000427, -0.27846235036849976, -0.9517385363578796, 0.0
1508651, 6.170000076293945, 99.625, 99.98648834228516, 98.97671508789062, 10.877771377563477, -6.130641937255859, -6.333448886871338, 0.755029022693634, 32.272422790527344, 67.47869873046875, 81.71134948730469, 58.979251861572266, -3.6447792053222656, -1.12139892578125, -0.18197619915008545, 0.956324577331543, -0.22875121235847473, 0.9810740351676941, 0.19223517179489136, 0.02319994568824768, 0.06616085767745972, -0.22020059823989868, -0.9732084274291992, 0.0
1508661, 6.170000076293945, 99.61499786376953, 98.72785949707031, 99.72805786132812, 12.69153118133545, -6.355440139770508, -6.531369209289551, 0.8869760036468506, 32.16495132446289, 65.62252044677734, 79.44617462158203, 60.88410949707031, -3.3773155212402344, -1.129180908203125, -0.18598732352256775, 0.9701672792434692, -0.15550974011421204, 0.9825514554977417, 0.18370848894119263, -0.02902846224606037, 0.0004060715436935425, -0.15819576382637024, -0.9874078035354614, 0.0
1508671, 6.170000076293945, 99.62200164794922, 99.87641143798828, 98.63214874267578, 13.28016471862793, -6.379875183105469, -6.568020820617676, 0.901636004447937, 31.85118293762207, 63.105857849121094, 77.108154296875, 63.258506774902344, -1.7305908203125, -0.3610687255859375, -0.18497201800346375, 0.9793887734413147, -0.08113057911396027, 0.9805358052253723, 0.17839640378952026, -0.08199511468410492, -0.06583168357610703, -0.09471867978572845, -0.9933250546455383, 0.0
1508681, 6.159999847412109, 99.61699676513672, 99.73284149169922, 97.4931640625, 12.20818042755127, -6.472725868225098, -6.575352191925049, 0.9309579730033875, 31.854333877563477, 61.7291374206543, 74.69200134277344, 64.76972961425781, -2.143505096435547, 0.0364532470703125, -0.17868401110172272, 0.9838899970054626, -0.005627423524856567, 0.9750526547431946, 0.17630773782730103, -0.13485892117023468, -0.1316942572593689, -0.029584549367427826, -0.9908488988876343, 0.0
1508691, 6.159999847412109, 99.61199951171875, 98.84271240234375, 98.13443756103516, 11.700901985168457, -6.5729079246521, -6.677977085113525, 1.0262529850006104, 32.02153015136719, 60.93318557739258, 73.4142074584961, 65.87005615234375, -1.3903961181640625, -0.9068145751953125, -0.16641385853290558, 0.9835274815559387, 0.07056428492069244, 0.9660736322402954, 0.1769571453332901, -0.18811440467834473, -0.19750270247459412, 0.036865122616291046, -0.979608952999115, 0.0
1508701, 6.150000095367432, 99.60299682617188, 98.11051177978516, 98.0052261352539, 11.030912399291992, -6.638882160186768, -6.763497829437256, 1.072679042816162, 32.43851089477539, 61.00090789794922, 72.34730529785156, 66.32875061035156, -0.9987983703613281, -0.1778411865234375, -0.14854685962200165, 0.9780173301696777, 0.1463395357131958, 0.9534637928009033, 0.18090824782848358, -0.2412014901638031, -0.2623734772205353, 0.10369947552680969, -0.9593782424926758, 0.0
1508711, 6.150000095367432, 99.58699798583984, 97.63195037841797, 97.4931640625, 9.82014274597168, -6.648654937744141, -6.995626926422119, 1.0824520587921143, 33.251197814941406, 62.40110778808594, 72.15388488769531, 65.82186126708984, -0.4314079284667969, -0.6094818115234375, -0.1251671314239502, 0.9673004150390625, 0.22059527039527893, 0.9366899728775024, 0.18850219249725342, -0.2950897216796875, -0.32702338695526123, 0.16969363391399384, -0.9296557903289795, 0.0
1508721, 6.159999847412109, 99.58300018310547, 93.38229370117188, 99.69934844970703, 10.15035343170166, -6.805037021636963, -7.176443099975586, 0.9431750178337097, 33.851348876953125, 63.02922439575195, 70.68856811523438, 65.84381103515625, 0.4380989074707031, -0.7017669677734375, -0.09764020889997482, 0.9508446455001831, 0.2938707768917084, 0.9154234528541565, 0.20165841281414032, -0.3483288288116455, -0.3904684782028198, 0.23500514030456543, -0.8901163339614868, 0.0
1508731, 6.159999847412109, 99.58100128173828, 93.16693878173828, 99.00542449951172, 13.485947608947754, -6.878341197967529, -7.318163871765137, 0.7696899771690369, 34.25141143798828, 62.94137954711914, 69.49439239501953, 66.3933334350586, -0.060459136962890625, -1.446380615234375, -0.0662897527217865, 0.9288287162780762, 0.3645300269126892, 0.8896452188491821, 0.22044581174850464, -0.3999178409576416, -0.4518147110939026, 0.29779180884361267, -0.8409421443939209, 0.0
1508741, 6.159999847412109, 99.62999725341797, 91.60203552246094, 99.28299713134766, 14.687145233154297, -6.944314002990723, -7.293728828430176, 0.6401860117912292, 32.68450164794922, 56.157772064208984, 63.25276184082031, 71.7252426147461, -0.5144729614257812, -0.64599609375, -0.0313664935529232, 0.9014918208122253, 0.43165698647499084, 0.8601959347724915, 0.24427619576454163, -0.4476510286331177, -0.5089977979660034, 0.35726824402809143, -0.7831224799156189, 0.0
1508751, 6.159999847412109, 99.73500061035156, 90.63054656982422, 99.47441864013672, 15.43370532989502, -7.059156894683838, -7.217981815338135, 0.4886919856071472, 27.958560943603516, 38.80384826660156, 49.8258171081543, 84.59986877441406, -4.841331481933594, -0.91162109375, 0.0064356978982687, 0.8688377737998962, 0.4950541853904724, 0.827578067779541, 0.27326440811157227, -0.49034735560417175, -0.5613136291503906, 0.41285163164138794, -0.7172731161117554, 0.0
1508761, 6.159999847412109, 99.87100219726562, 92.76972961425781, 96.73703002929688, 16.14198112487793, -7.105582237243652, -7.247303009033203, 0.3249799907207489, 20.321382522583008, 12.010726928710938, 29.854541778564453, 104.14786529541016, -11.64377212524414, -0.553466796875, 0.04723028093576431, 0.8314893841743469, 0.5535286068916321, 0.7915689945220947, 0.3068365454673767, -0.5284593105316162, -0.6092517375946045, 0.463115394115448, -0.6436898708343506, 0.0
1508771, 6.170000076293945, 99.97799682617188, 95.25827026367188, 93.25786590576172, 16.34297752380371, -7.293728828430176, -7.301058769226074, 0.28588399291038513, 12.100163459777832, -16.053380966186523, 8.847423553466797, 124.455078125, -17.667449951171875, -0.424163818359375, 0.09197184443473816, 0.7889372110366821, 0.6075512766838074, 0.7526865601539612, 0.34437477588653564, -0.5611312985420227, -0.6519233584403992, 0.5089040398597717, -0.5621501803398132, 0.0
1508781, 6.159999847412109, 100.04399871826172, 95.44490814208984, 91.67860412597656, 16.09412384033203, -7.418344974517822, -7.2448601722717285, 0.5839869976043701, 5.052230358123779, -39.38115310668945, -8.889705657958984, 141.20806884765625, -18.360952377319336, -0.7013702392578125, 0.14225108921527863, 0.7413794994354248, 0.6558356881141663, 0.7131695747375488, 0.38270139694213867, -0.5873058438301086, -0.6864063739776611, 0.5512670278549194, -0.47429007291793823, 0.0
1508791, 6.150000095367432, 100.0979995727539, 94.10492706298828, 89.44371032714844, 13.897513389587402, -7.374362945556641, -7.239973068237305, 0.7623590230941772, -0.8885335922241211, -58.32626724243164, -24.850833892822266, 154.6446075439453, -15.158822059631348, -0.9861907958984375, 0.19670641422271729, 0.6902163624763489, 0.6963528394699097, 0.6729304194450378, 0.42149457335472107, -0.60787034034729, -0.7130715847015381, 0.5881691575050354, -0.3815573751926422, 0.0
1508801, 6.170000076293945, 100.1259994506836, 93.03772735595703, 90.18548583984375, 13.227522850036621, -7.3572587966918945, -7.342597961425781, 0.8967490196228027, -5.259647846221924, -71.44791412353516, -34.305267333984375, 163.86415100097656, -12.206802368164062, -2.5298614501953125, 0.2550177276134491, 0.6357591152191162, 0.7285435199737549, 0.6316446661949158, 0.46094539761543274, -0.6233408451080322, -0.7321139574050903, 0.6191437244415283, -0.28402501344680786, 0.0
1508811, 6.159999847412109, 100.13400268554688, 92.04231262207031, 90.38169860839844, 14.261221885681152, -7.323050022125244, -7.501422882080078, 0.9700530171394348, -8.008447647094727, -78.70112609863281, -39.80499267578125, 168.79942321777344, -8.333601951599121, -0.235382080078125, 0.31648123264312744, 0.5787755250930786, 0.7515702843666077, 0.5891108512878418, 0.5010690689086914, -0.6339382529258728, -0.7434971332550049, 0.6433879733085632, -0.18238432705402374, 0.0
1508821, 6.159999847412109, 100.14299774169922, 91.67860412597656, 90.96554565429688, 15.40977668762207, -7.386579990386963, -7.635812759399414, 0.9847139716148376, -9.867462158203125, -82.7368392944336, -42.262935638427734, 171.4115447998047, -4.473376750946045, -0.5656280517578125, 0.3798704743385315, 0.5192965865135193, 0.765525221824646, 0.5456137657165527, 0.5424970388412476, -0.6387503147125244, -0.7469965815544128, 0.6603237390518188, -0.07725705206394196, 0.0
1508831, 6.159999847412109, 100.15299987792969, 91.85089111328125, 92.32466888427734, 14.404791831970215, -7.384137153625488, -7.706674098968506, 0.9529489874839783, -11.275712966918945, -85.12705993652344, -42.62596893310547, 172.85552978515625, -2.3548946380615234, 0.1544952392578125, 0.443757027387619, 0.4586635231971741, 0.769874632358551, 0.5017593502998352, 0.5846390128135681, -0.6375218629837036, -0.7425073385238647, 0.6691968441009521, 0.029298752546310425, 0.0
1508841, 6.170000076293945, 100.16300201416016, 92.16674041748047, 92.52566528320312, 15.290136337280273, -7.464770793914795, -7.877716064453125, 0.8991929888725281, -12.42099380493164, -86.54560089111328, -42.981689453125, 173.57818603515625, -1.273758888244629, 1.0832061767578125, 0.5080986022949219, 0.39709949493408203, 0.7642952799797058, 0.45723313093185425, 0.6276527643203735, -0.6300708055496216, -0.7299134135246277, 0.6695994138717651, 0.13734231889247894, 0.0
1508851, 6.159999847412109, 100.16300201416016, 88.438720703125, 87.20880889892578, 19.3531494140625, -7.743326187133789, -7.946133136749268, 0.7379249930381775, -13.053632736206055, -86.17675018310547, -48.591827392578125, 172.80673217773438, -0.642369270324707, 0.367706298828125, 0.5710169672966003, 0.3344733715057373, 0.7497110366821289, 0.41254085302352905, 0.6726396679878235, -0.6143006086349487, -0.709753155708313, 0.6600627899169922, 0.2461046725511551, 0.0
1508861, 6.159999847412109, 100.11799621582031, 80.15476989746094, 81.4995346069336, 21.655044555664062, -7.865499019622803, -7.985228061676025, 0.6524029970169067, -11.75693416595459, -79.31658172607422, -52.90556335449219, 167.2330780029297, 0.5171136856079102, -6.3949127197265625, 0.631962776184082, 0.2725037932395935, 0.7255095839500427, 0.36890900135040283, 0.7175054550170898, -0.5908395648002625, -0.6815637350082397, 0.6410358548164368, 0.35290762782096863, 0.0
1508871, 6.170000076293945, 100.00900268554688, 72.16752624511719, 72.08617401123047, 22.67917251586914, -7.885046005249023, -8.051201820373535, 0.5986469984054565, -7.028316020965576, -61.06476974487305, -51.359832763671875, 153.3883056640625, 4.755721092224121, -9.908035278320312, 0.6905162334442139, 0.21265697479248047, 0.69134920835495, 0.3269341289997101, 0.7608370184898376, -0.5605714917182922, -0.6452142000198364, 0.6131095290184021, 0.45584553480148315, 0.0
1508881, 6.170000076293945, 99.91899871826172, 60.07898712158203, 57.403812408447266, 22.798812866210938, -7.968123912811279, -8.12939167022705, 0.5668820142745972, -1.0677204132080078, -39.23011016845703, -53.6678466796875, 136.78024291992188, 12.158214569091797, -12.324722290039062, 0.7460433840751648, 0.15521374344825745, 0.647554874420166, 0.28726324439048767, 0.8022966384887695, -0.5232581496238708, -0.6007487177848816, 0.5763921141624451, 0.5539610981941223, 0.0
1508891, 6.159999847412109, 99.83699798583984, 46.59782791137695, 41.98925018310547, 23.267805099487305, -8.009662628173828, -8.060976028442383, 0.6035339832305908, 5.300525665283203, -16.774600982666016, -56.980255126953125, 119.6634521484375, 14.467702865600586, -18.95556640625, 0.79697585105896, 0.1007457971572876, 0.5955494046211243, 0.25177645683288574, 0.8408343195915222, -0.4791716933250427, -0.5490336418151855, 0.5318337082862854, 0.6447595357894897, 0.0
1508901, 6.159999847412109, 99.7699966430664, 32.41796112060547, 28.70908546447754, 23.64108657836914, -8.031654357910156, -8.041427612304688, 0.6475170254707336, 11.341669082641602, 3.7729263305664062, -60.658050537109375, 103.92196655273438, 14.8845796585083, -20.471847534179688, 0.8429954648017883, 0.049985602498054504, 0.5355925559997559, 0.22077281773090363, 0.8758008480072021, -0.42922186851501465, -0.4905281066894531, 0.4800764322280884, 0.7272610664367676, 0.0
1508911, 6.170000076293945, 99.69999694824219, 19.869998931884766, 16.94118309020996, 23.239093780517578, -7.997446060180664, -8.038984298706055, 0.681725025177002, 17.308399200439453, 23.332822799682617, -62.86589050292969, 88.93125915527344, 13.67085075378418, -19.459819793701172, 0.8835749626159668, 0.003935080021619797, 0.46827244758605957, 0.19450537860393524, 0.9065436720848083, -0.3746269941329956, -0.42598432302474976, 0.42209261655807495, 0.8002343773841858, 0.0
1508921, 6.159999847412109, 99.62100219726562, 8.27437973022461, -5.221138000488281, 23.114665985107422, -8.188035011291504, -8.202695846557617, 0.5546650290489197, 23.540678024291992, 43.10868835449219, -71.353515625, 73.56230926513672, 13.055274963378906, -17.234451293945312, 0.9188474416732788, -0.03634406626224518, 0.3929348886013031, 0.1713254451751709, 0.9337472915649414, -0.31426554918289185, -0.3554808795452118, 0.35608184337615967, 0.8641985058784485, 0.0
1508931, 6.159999847412109, 99.56199645996094, -2.780458927154541, -15.90748405456543, 23.397018432617188, -8.27355670928955, -8.285774230957031, 0.4886919856071472, 29.20001220703125, 60.1811637878418, -73.51638793945312, 60.33417510986328, 13.209463119506836, -23.9063720703125, 0.94778972864151, -0.0700492113828659, 0.3111063539981842, 0.15256376564502716, 0.9562892913818359, -0.24946829676628113, -0.2800332009792328, 0.2839069962501526, 0.9170486330986023, 0.0
1508941, 6.170000076293945, 99.52899932861328, -6.4654059410095215, -19.736000061035156, 21.851255416870117, -8.104957580566406, -8.246679306030273, 0.6548470258712769, 33.5905647277832, 72.3387680053711, -69.44293212890625, 50.926910400390625, 11.514223098754883, -15.423133850097656, 0.9693760871887207, -0.09807408601045609, 0.22514623403549194, 0.14101675152778625, 0.9728773236274719, -0.18336671590805054, -0.20105667412281036, 0.20950061082839966, 0.9569146633148193, 0.0
1508951, 6.159999847412109, 99.50499725341797, -9.743573188781738, -20.88455581665039, 18.79801368713379, -8.109845161437988, -8.229574203491211, 0.8454369902610779, 36.931175231933594, 80.55370330810547, -66.09413146972656, 44.443336486816406, 8.346382141113281, -5.344947814941406, 0.9833194613456726, -0.12097969651222229, 0.13581612706184387, 0.1369853913784027, 0.983823835849762, -0.11543387919664383, -0.11965445429086685, 0.13211306929588318, 0.9839862585067749, 0.0
1508961, 6.170000076293945, 99.47599792480469, -13.050454139709473, -22.267606735229492, 18.405590057373047, -8.12939167022705, -8.412834167480469, 0.8332200050354004, 39.852210998535156, 87.09587097167969, -64.1437759399414, 39.17708206176758, 5.767642974853516, -3.1413135528564453, 0.9897453188896179, -0.13644848763942719, 0.042252250015735626, 0.13838055729866028, 0.9892730712890625, -0.04678487777709961, -0.03541569411754608, 0.05215180665254593, 0.9980109333992004, 0.0
1508971, 6.150000095367432, 99.44999694824219, -16.00798225402832, -26.871397018432617, 19.080366134643555, -8.141610145568848, -8.674283981323242, 0.6841679811477661, 42.429542541503906, 92.26628875732422, -65.15393829345703, 34.84481430053711, 4.663074493408203, -3.322816848754883, 0.988235592842102, -0.14270047843456268, -0.055011406540870667, 0.14405836164951324, 0.9893342852592468, 0.021544255316257477, 0.0513499416410923, -0.02921590581536293, 0.9982532262802124, 0.0
1508981, 6.159999847412109, 99.42400360107422, -21.181264877319336, -33.28894805908203, 19.549360275268555, -8.112287521362305, -8.781795501708984, 0.6621770262718201, 44.8144416809082, 96.59674072265625, -69.51769256591797, 31.0185604095459, 3.7624588012695312, -5.353580474853516, 0.9781529903411865, -0.14077508449554443, -0.15296570956707, 0.15543289482593536, 0.9838771224021912, 0.08846303820610046, 0.1380457729101181, -0.11030659079551697, 0.9842640161514282, 0.0
1508991, 6.159999847412109, 99.40299987792969, -20.965911865234375, -35.97848129272461, 23.26302146911621, -7.953463077545166, -8.925960540771484, 0.8112279772758484, 46.90419387817383, 99.73380279541016, -68.47887420654297, 28.216814041137695, 3.225269317626953, -8.207103729248047, 0.9590185880661011, -0.13258862495422363, -0.2504059970378876, 0.1741045117378235, 0.9729866981506348, 0.1516038477420807, 0.2235405445098877, -0.18898805975914001, 0.956197202205658, 0.0
1509001, 6.150000095367432, 99.37999725341797, -20.43470573425293, -37.117462158203125, 25.579273223876953, -7.860611915588379, -8.820892333984375, 0.9138540029525757, 48.91084671020508, 102.49195861816406, -66.43016815185547, 25.735578536987305, 2.480876922607422, -1.7666053771972656, 0.9316366910934448, -0.11786990612745285, -0.3437429666519165, 0.19894413650035858, 0.9570199251174927, 0.21102923154830933, 0.30409473180770874, -0.26498860120773315, 0.9150449633598328, 0.0
1509011, 6.159999847412109, 99.3479995727539, -21.94696807861328, -34.44707489013672, 28.953153610229492, -7.777534008026123, -8.65229320526123, 1.072679042816162, 51.18162155151367, 106.07443237304688, -62.59542465209961, 22.717145919799805, 2.2288475036621094, -0.43343353271484375, 0.8969103097915649, -0.09752930700778961, -0.43132293224334717, 0.22977356612682343, 0.9361533522605896, 0.2661206126213074, 0.37782979011535645, -0.3377933204174042, 0.8620558381080627, 0.0
1509021, 6.159999847412109, 99.30500030517578, -21.382261276245117, -34.126434326171875, 30.20699119567871, -7.738439083099365, -8.451929092407227, 1.1019999980926514, 54.01904296875, 111.49919891357422, -57.651641845703125, 18.399803161621094, 2.749195098876953, 0.8180160522460938, 0.8560722470283508, -0.07067923247814178, -0.5120000839233398, 0.2646177113056183, 0.9108649492263794, 0.3167043924331665, 0.44397854804992676, -0.4066065847873688, 0.7984697818756104, 0.0
1509031, 6.159999847412109, 99.27400207519531, -20.918054580688477, -34.84906768798828, 28.847869873046875, -7.79708194732666, -8.21735668182373, 1.1362090110778809, 56.72311782836914, 116.33480834960938, -53.94789123535156, 14.514997482299805, 3.917011260986328, 0.6277503967285156, 0.8103447556495667, -0.03737625107169151, -0.5847594738006592, 0.30277571082115173, 0.8811175227165222, 0.3632601499557495, 0.5016646385192871, -0.4714174270629883, 0.7253261208534241, 0.0
1509041, 6.150000095367432, 99.25, -22.746170043945312, -33.030521392822266, 26.656042098999023, -7.853281021118164, -8.082966804504395, 1.2266169786453247, 59.100040435791016, 119.93021392822266, -50.99110412597656, 11.551079750061035, 3.5036163330078125, -0.18143081665039062, 0.7601776123046875, 0.0014795176684856415, -0.6497130393981934, 0.344465434551239, 0.8469650149345398, 0.4049602746963501, 0.5508835911750793, -0.5316460132598877, 0.6433347463607788, 0.0
1509051, 6.159999847412109, 99.2249984741211, -24.411575317382812, -31.125835418701172, 26.28276252746582, -7.882603168487549, -8.048757553100586, 1.2486079931259155, 61.32539367675781, 122.91718292236328, -48.32114028930664, 9.049942970275879, 2.676776885986328, -0.007144927978515625, 0.705816388130188, 0.04581334441900253, -0.7069113850593567, 0.38888394832611084, 0.8090364336967468, 0.44071337580680847, 0.592107892036438, -0.5859698057174683, 0.5532156229019165, 0.0
1509061, 6.159999847412109, 99.19100189208984, -26.69432830810547, -28.244876861572266, 21.516260147094727, -8.065861701965332, -8.07563591003418, 1.0238089561462402, 63.79840850830078, 126.67081451416016, -44.875083923339844, 6.026347637176514, 2.263751983642578, 0.16917800903320312, 0.6474229693412781, 0.09790118038654327, -0.7558162212371826, 0.4338228106498718, 0.7680303454399109, 0.47109049558639526, 0.6266103982925415, -0.632885754108429, 0.4547691345214844, 0.0
1509071, 6.159999847412109, 99.16100311279297, -27.402603149414062, -27.08675193786621, 18.276378631591797, -8.102514266967773, -8.170930862426758, 0.8478800058364868, 66.26521301269531, 130.30958557128906, -41.636959075927734, 3.106527090072632, 2.7427711486816406, 0.4233436584472656, 0.5850281119346619, 0.15557147562503815, -0.7959515452384949, 0.4796416461467743, 0.7250257730484009, 0.49424752593040466, 0.653976559638977, -0.6709209084510803, 0.3495422601699829, 0.0
1509081, 6.150000095367432, 99.12699890136719, -28.235305786132812, -25.679771423339844, 19.989639282226562, -8.053645133972168, -8.361520767211914, 0.6621770262718201, 68.86465454101562, 134.3074493408203, -38.07980728149414, -0.044727325439453125, 2.6461105346679688, 0.3189697265625, 0.5183276534080505, 0.21730901300907135, -0.8271109461784363, 0.5262854695320129, 0.6812798976898193, 0.5088028907775879, 0.6740618944168091, -0.6990237832069397, 0.23875990509986877, 0.0
1509091, 6.159999847412109, 99.08799743652344, -26.976680755615234, -26.0626220703125, 21.05683708190918, -8.173375129699707, -8.559440612792969, 0.40805700421333313, 71.729248046875, 139.1057891845703, -33.76811981201172, -3.7375919818878174, 2.85760498046875, 0.40674591064453125, 0.44757330417633057, 0.28383466601371765, -0.8480066061019897, 0.5728722810745239, 0.637146532535553, 0.515616774559021, 0.686654806137085, -0.7165765762329102, 0.12256892770528793, 0.0
1509101, 6.159999847412109, 99.06099700927734, -25.765913009643555, -27.134607315063477, 21.56890106201172, -8.327313423156738, -8.65229320526123, 0.2296849936246872, 74.30982971191406, 142.81777954101562, -30.769378662109375, -6.637117385864258, 3.3527755737304688, 0.6201133728027344, 0.3744508922100067, 0.3539281487464905, -0.8570417165756226, 0.6189367771148682, 0.592829167842865, 0.5152376294136047, 0.6904369592666626, -0.7233865857124329, 0.002926349639892578, 0.0
1509111, 6.159999847412109, 99.04000091552734, -23.42573356628418, -29.163721084594727, 21.884754180908203, -8.34930419921875, -8.64007568359375, 0.1270589977502823, 76.51293182373047, 145.14979553222656, -28.664501190185547, -8.522283554077148, 2.621612548828125, 0.09942245483398438, 0.30094754695892334, 0.4249633848667145, -0.8537188172340393, 0.6638977527618408, 0.549293577671051, 0.5074596405029297, 0.6845945715904236, -0.7195014953613281, -0.1168237030506134, 0.0
1509121, 6.150000095367432, 99.01599884033203, -19.6594295501709, -32.3701057434082, 21.58325958251953, -8.31753921508789, -8.55211067199707, 0.12950299680233002, 78.60192108154297, 147.03526306152344, -26.724416732788086, -10.066819190979004, 1.7088470458984375, 0.2201690673828125, 0.22910931706428528, 0.4950241148471832, -0.838128387928009, 0.7074008584022522, 0.5067864656448364, 0.4926970601081848, 0.6686495542526245, -0.7057750225067139, -0.23407113552093506, 0.0
1509131, 6.150000095367432, 99.00199890136719, -17.20918083190918, -34.34178924560547, 20.104494094848633, -7.995001792907715, -8.19292163848877, 0.4935790002346039, 80.26145935058594, 147.4157257080078, -25.932209014892578, -10.5205078125, 1.4061431884765625, 0.3963737487792969, 0.16403837502002716, 0.5600526928901672, -0.812053918838501, 0.7493550777435303, 0.46461397409439087, 0.4718048870563507, 0.6415275931358337, -0.6859115362167358, -0.3434640169143677, 0.0
1509141, 6.159999847412109, 98.98899841308594, -16.7976131439209, -34.667213439941406, 19.3531494140625, -7.7848639488220215, -8.124505043029785, 0.7330380082130432, 81.64115905761719, 146.83969116210938, -26.09964370727539, -10.291590690612793, 0.4192962646484375, 0.33922576904296875, 0.10374904423952103, 0.6209496259689331, -0.7769535779953003, 0.7898465991020203, 0.4233136475086212, 0.4437870979309082, 0.6044647693634033, -0.6597172617912292, -0.4465368390083313, 0.0
1509151, 6.150000095367432, 98.97200012207031, -18.09930992126465, -33.38944625854492, 19.55414581298828, -7.572282791137695, -8.107400894165039, 0.9847139716148376, 83.00848388671875, 146.239501953125, -26.358989715576172, -10.048995018005371, -0.20502471923828125, 0.061611175537109375, 0.04883216321468353, 0.6774268746376038, -0.7339668869972229, 0.8284127116203308, 0.3830518424510956, 0.4086594879627228, 0.5579845309257507, -0.6279839277267456, -0.5424842238426208, 0.0
1509161, 6.150000095367432, 98.94300079345703, -19.51586151123047, -31.628328323364258, 20.496917724609375, -7.430562973022461, -8.122061729431152, 1.1410959959030151, 84.80731201171875, 147.12416076660156, -25.30045509338379, -10.864425659179688, -0.21958160400390625, -0.01678466796875, -0.0007623769342899323, 0.7298399806022644, -0.6836169958114624, 0.8640965819358826, 0.34456250071525574, 0.3668961524963379, 0.5033244490623474, -0.5904319882392883, -0.6309153437614441, 0.0
1509171, 6.159999847412109, 98.91799926757812, -20.702701568603516, -30.144779205322266, 21.655044555664062, -7.327937126159668, -8.114731788635254, 1.1801910400390625, 86.70684051513672, 148.3314971923828, -24.05042839050293, -11.904582023620605, 0.7433319091796875, 0.24361038208007812, -0.04506862163543701, 0.7781298756599426, -0.6264837980270386, 0.8958300948143005, 0.3090154230594635, 0.31936976313591003, 0.4421044588088989, -0.5468300580978394, -0.7109993696212769, 0.0
1509181, 6.159999847412109, 98.89700317382812, -21.43968963623047, -28.98186683654785, 20.922840118408203, -7.2815117835998535, -8.080522537231445, 1.1435389518737793, 88.51487731933594, 149.1990203857422, -22.96463966369629, -12.689387321472168, 0.9453659057617188, 0.21030807495117188, -0.08401909470558167, 0.8221890330314636, -0.5629788041114807, 0.9229069948196411, 0.2772468030452728, 0.26716315746307373, 0.3757428228855133, -0.49713078141212463, -0.7820984125137329, 0.0
1509191, 6.139999866485596, 98.86399841308594, -21.07598114013672, -28.756942749023438, 22.482961654663086, -7.259520053863525, -8.070749282836914, 1.0555739402770996, 90.71574401855469, 151.38323974609375, -20.83147430419922, -14.406562805175781, 0.7173004150390625, 0.30161285400390625, -0.11781029403209686, 0.8616225719451904, -0.4936865270137787, 0.9450017213821411, 0.2500241696834564, 0.2108529508113861, 0.3051093518733978, -0.441694438457489, -0.8436906337738037, 0.0
1509201, 6.150000095367432, 98.82599639892578, -21.851255416870117, -26.627328872680664, 25.038494110107422, -7.464770793914795, -8.060976028442383, 0.9236279726028442, 93.31920623779297, 154.88287353515625, -17.247081756591797, -17.034414291381836, 1.5626449584960938, 0.4168586730957031, -0.14644232392311096, 0.8968607187271118, -0.4173661470413208, 0.9618396162986755, 0.2276727259159088, 0.15175272524356842, 0.23112404346466064, -0.379216730594635, -0.8959776163101196, 0.0
1509211, 6.159999847412109, 98.79399871826172, -21.80339813232422, -25.8759822845459, 24.30150604248047, -7.557622909545898, -7.933916091918945, 0.8307759761810303, 95.92236328125, 158.29769897460938, -14.127589225769043, -19.587976455688477, 2.4003753662109375, 0.9585380554199219, -0.16877636313438416, 0.9266469478607178, -0.33591508865356445, 0.9733192324638367, 0.21043452620506287, 0.09146640449762344, 0.15544524788856506, -0.3115156590938568, -0.9374402761459351, 0.0
1509221, 6.150000095367432, 98.77100372314453, -23.14337921142578, -24.70828628540039, 23.310876846313477, -7.626039981842041, -7.811742782592773, 0.7696899771690369, 98.20628356933594, 160.54177856445312, -12.534504890441895, -21.30144500732422, 2.3222808837890625, 0.5671119689941406, -0.1844768524169922, 0.9503760933876038, -0.25050458312034607, 0.9796695709228516, 0.19825387001037598, 0.03069460391998291, 0.0788349062204361, -0.23974961042404175, -0.9676284193992615, 1.0
1509231, 6.159999847412109, 98.74400329589844, -22.63610076904297, -24.45464515686035, 22.889739990234375, -7.7091169357299805, -7.735994815826416, 0.6719509959220886, 100.45157623291016, 162.59393310546875, -10.453835487365723, -22.845441818237305, 1.5441970825195312, -0.120635986328125, -0.19399750232696533, 0.9675507545471191, -0.16189369559288025, 0.9809998273849487, 0.19164304435253143, -0.03018883801996708, 0.0018165037035942078, -0.1646745800971985, -0.9863460659980774, 1.0
1509241, 6.150000095367432, 98.72200012207031, -21.382261276245117, -25.775484085083008, 22.028324127197266, -7.821516036987305, -7.7091169357299805, 0.5619950294494629, 102.49549865722656, 163.91217041015625, -9.478768348693848, -23.86666488647461, 1.4096298217773438, 0.5377922058105469, -0.19750253856182098, 0.9777505397796631, -0.07068030536174774, 0.9774070382118225, 0.19087021052837372, -0.09079135954380035, -0.07528065890073776, -0.08701523393392563, -0.9933582544326782, 1.0
1509251, 6.150000095367432, 98.70600128173828, -21.20519256591797, -26.23969268798828, 21.095123291015625, -7.845951080322266, -7.648031234741211, 0.5302299857139587, 104.2054214477539, 164.0596923828125, -9.501481056213379, -24.04666519165039, 0.9210586547851562, -0.046253204345703125, -0.19420278072357178, 0.9807323813438416, 0.02117602527141571, 0.9692073464393616, 0.19516310095787048, -0.15015849471092224, -0.15139824151992798, -0.008637472987174988, -0.9884347915649414, 1.0
1509261, 6.150000095367432, 98.68900299072266, -20.204994201660156, -27.254249572753906, 18.329021453857422, -7.8264031410217285, -7.660247802734375, 0.5277870297431946, 105.7533187866211, 163.65115356445312, -9.736432075500488, -23.82227325439453, 0.15686798095703125, -0.20313644409179688, -0.18391771614551544, 0.9765056371688843, 0.1122950091958046, 0.9565153121948242, 0.20411401987075806, -0.2083628624677658, -0.22638870775699615, 0.06909006834030151, -0.9715833067893982, 1.0
1509271, 6.150000095367432, 98.6719970703125, -19.386648178100586, -27.89073944091797, 17.008182525634766, -7.714004039764404, -7.775091171264648, 0.6059780120849609, 107.21509552001953, 162.96141052246094, -10.036721229553223, -23.393686294555664, -0.20296478271484375, -0.01058197021484375, -0.1658443957567215, 0.9654836654663086, 0.2008383572101593, 0.9393340945243835, 0.2166663408279419, -0.26590651273727417, -0.3002435863018036, 0.14455506205558777, -0.9428451061248779, 1.0
1509281, 6.150000095367432, 98.65299987792969, -19.525432586669922, -27.68495750427246, 16.567903518676758, -7.640699863433838, -7.875272750854492, 0.6450729966163635, 108.7064437866211, 162.39268493652344, -10.326347351074219, -23.0565128326416, -0.38348388671875, 0.12856674194335938, -0.14047786593437195, 0.9478646516799927, 0.28603804111480713, 0.9176151156425476, 0.23313896358013153, -0.3219127655029297, -0.37181663513183594, 0.21725112199783325, -0.9025262594223022, 1.0
1509291, 6.150000095367432, 98.63700103759766, -19.889141082763672, -27.254249572753906, 17.13739585876465, -7.62359619140625, -8.034096717834473, 0.6866120100021362, 110.1072006225586, 161.53250122070312, -10.822977066040039, -22.512508392333984, -0.303192138671875, 0.04764556884765625, -0.1077713668346405, 0.9237997531890869, 0.36739420890808105, 0.8912175893783569, 0.25354263186454773, -0.3760935664176941, -0.44058555364608765, 0.2868960201740265, -0.8506317138671875, 1.0
1509301, 6.150000095367432, 98.60600280761719, -19.444076538085938, -26.857040405273438, 18.23809242248535, -7.584501266479492, -8.124505043029785, 0.6866120100021362, 111.99473571777344, 162.35154724121094, -9.582442283630371, -23.15860366821289, -0.4900054931640625, 0.047473907470703125, -0.06855121999979019, 0.8936411142349243, 0.44351494312286377, 0.8603782057762146, 0.2779993414878845, -0.42715901136398315, -0.5050240159034729, 0.3523083031177521, -0.787926971912384, 1.0
1509311, 6.139999866485596, 98.5770034790039, -18.94158363342285, -26.464616775512695, 19.013368606567383, -7.520970821380615, -8.119619369506836, 0.6841679811477661, 114.09317779541016, 163.87197875976562, -7.810994625091553, -24.297327041625977, 0.60028076171875, 0.5956802368164062, -0.023674726486206055, 0.8579668998718262, 0.5131583213806152, 0.8257647752761841, 0.30611827969551086, -0.47371217608451843, -0.5635168552398682, 0.41253310441970825, -0.7157266139984131, 1.0
1509321, 6.150000095367432, 98.552001953125, -18.68315887451172, -26.861825942993164, 20.439489364624023, -7.46232795715332, -8.085410118103027, 0.6719509959220886, 116.1561279296875, 165.2374267578125, -6.869925022125244, -25.33501625061035, 1.046295166015625, 0.6340446472167969, 0.026019010692834854, 0.8173203468322754, 0.5755950212478638, 0.7879161834716797, 0.337597519159317, -0.5149904489517212, -0.615231990814209, 0.4669201672077179, -0.6351963877677917, 1.0
1509331, 6.150000095367432, 98.53299713134766, -18.276378631591797, -27.110679626464844, 18.97029685974121, -7.418344974517822, -7.953463077545166, 0.6621770262718201, 117.9796371459961, 165.75169372558594, -6.344315528869629, -25.749387741088867, 0.93450927734375, -0.09682083129882812, 0.07929312437772751, 0.7722238302230835, 0.6303824782371521, 0.7478793263435364, 0.3720185458660126, -0.5497980713844299, -0.6590815186500549, 0.5150452852249146, -0.5480321049690247, 1.0
1509341, 6.139999866485596, 98.51100158691406, -18.376876831054688, -26.40240478515625, 19.48236083984375, -7.2986159324646, -7.833734035491943, 0.7330380082130432, 119.78143310546875, 166.1798553466797, -5.576232433319092, -26.088369369506836, 0.37738800048828125, 0.11146926879882812, 0.13602173328399658, 0.7237252593040466, 0.6765493154525757, 0.7065067291259766, 0.4078674018383026, -0.5783525109291077, -0.6945111155509949, 0.5566551685333252, -0.45583826303482056, 1.0
1509351, 6.150000095367432, 98.4800033569336, -17.620744705200195, -26.5794734954834, 20.62134552001953, -7.257077217102051, -7.765316963195801, 0.7525849938392639, 121.90017700195312, 167.67852783203125, -4.065361022949219, -27.18973731994629, 0.31824493408203125, 0.4299964904785156, 0.19533365964889526, 0.6719940900802612, 0.7143303155899048, 0.6638979911804199, 0.44550052285194397, -0.6006396412849426, -0.7218612432479858, 0.5915676355361938, -0.35911455750465393, 1.0
1509361, 6.150000095367432, 98.45600128173828, -16.893327713012695, -26.742185592651367, 21.592830657958984, -7.213095188140869, -7.643144130706787, 0.7892370223999023, 123.9430160522461, 168.8830108642578, -2.786027431488037, -28.06974220275879, 1.0062713623046875, 0.4103584289550781, 0.25619518756866455, 0.6176166534423828, 0.7435811161994934, 0.6210198402404785, 0.48432657122612, -0.616247832775116, -0.740741491317749, 0.619658350944519, -0.2594703137874603, 1.0
1509371, 6.139999866485596, 98.4209976196289, -17.00339698791504, -26.273191452026367, 21.990039825439453, -7.137347221374512, -7.476987838745117, 0.8527669906616211, 126.34306335449219, 171.2735137939453, -0.8064783811569214, -29.795190811157227, 0.8060531616210938, 0.4001617431640625, 0.3176463842391968, 0.5613483190536499, 0.7641910910606384, 0.5788652300834656, 0.5235201716423035, -0.6251727342605591, -0.7510096430778503, 0.6409475803375244, -0.1586509495973587, 1.0
1509381, 6.150000095367432, 98.39299774169922, -17.46760368347168, -25.981266021728516, 21.564117431640625, -7.090921878814697, -7.327937126159668, 0.9114099740982056, 128.6924591064453, 173.43002319335938, 0.6277303695678711, -31.350439071655273, 1.5655593872070312, 0.25463104248046875, 0.3790011703968048, 0.5035391449928284, 0.7764055728912354, 0.5378749966621399, 0.5628541111946106, -0.6276025772094727, -0.7530260682106018, 0.6554713249206543, -0.057518959045410156, 1.0
1509391, 6.139999866485596, 98.3740005493164, -16.98904037475586, -25.689342498779297, 20.769699096679688, -7.100696086883545, -7.222868919372559, 0.9431750178337097, 130.6810302734375, 174.30064392089844, 1.7737367153167725, -31.95301628112793, 1.401275634765625, -0.1212921142578125, 0.4397510886192322, 0.44439029693603516, 0.7804712653160095, 0.4981429874897003, 0.6023989915847778, -0.623673141002655, -0.7473099827766418, 0.6630473732948303, 0.04353554546833038, 1.0
1509401, 6.139999866485596, 98.35600280761719, -17.33839225769043, -25.674985885620117, 19.06122398376465, -7.098251819610596, -7.1617817878723145, 0.9798269867897034, 132.4293212890625, 174.33599853515625, 1.5584492683410645, -31.972986221313477, 0.559539794921875, 0.5445632934570312, 0.4996087849140167, 0.3845258057117462, 0.776228129863739, 0.4598866105079651, 0.6416323781013489, -0.6138496398925781, -0.7340946793556213, 0.663661777973175, 0.14372679591178894, 1.0
1509411, 6.130000114440918, 98.33799743652344, -17.400604248046875, -25.8759822845459, 16.630117416381836, -7.054269790649414, -7.220425128936768, 1.0238089561462402, 134.03834533691406, 173.89463806152344, 1.0505211353302002, -31.651277542114258, 0.01141357421875, -0.235748291015625, 0.5588621497154236, 0.3248031437397003, 0.7630040645599365, 0.42282477021217346, 0.6799024343490601, -0.5991252660751343, -0.7133666276931763, 0.6574456691741943, 0.24263687431812286, 1.0
1509421, 6.139999866485596, 98.3280029296875, -18.319448471069336, -24.890140533447266, 14.959925651550293, -7.010288238525391, -7.296172142028809, 1.043357014656067, 135.28213500976562, 172.2216339111328, -0.11071634292602539, -30.443153381347656, -0.295806884765625, -0.18660736083984375, 0.6168554425239563, 0.26594603061676025, 0.740784227848053, 0.38707172870635986, 0.7170031070709229, -0.5797251462936401, -0.6853207349777222, 0.6443435549736023, 0.33934709429740906, 1.0
1509431, 6.139999866485596, 98.30500030517578, -18.98944091796875, -23.39223289489746, 15.15613842010498, -6.995626926422119, -7.469657897949219, 1.021366000175476, 136.79026794433594, 171.49273681640625, -0.06627339124679565, -29.90329360961914, -1.08984375, 0.04698371887207031, 0.6734836101531982, 0.2086258828639984, 0.7091504335403442, 0.3521288335323334, 0.7529572248458862, -0.5559316277503967, -0.6499422192573547, 0.6241234540939331, 0.4336411952972412, 1.0
1509441, 6.139999866485596, 98.28199768066406, -19.14736557006836, -23.272592544555664, 15.701701164245605, -6.98585319519043, -7.599161148071289, 0.91874098777771, 138.4495849609375, 171.30303955078125, -0.2267584502696991, -29.768604278564453, -0.4711456298828125, 0.5855216979980469, 0.7275465130805969, 0.15405385196208954, 0.6685377359390259, 0.3180023431777954, 0.787731945514679, -0.5275908708572388, -0.6079065203666687, 0.596443772315979, 0.5241222381591797, 1.0
1509451, 6.150000095367432, 98.25700378417969, -19.463218688964844, -22.593029022216797, 17.08953857421875, -6.968749046325684, -7.699343204498291, 0.8161150217056274, 140.27597045898438, 171.6862030029297, 0.2980922758579254, -30.036863327026367, -0.12237548828125, -0.025850296020507812, 0.7782276272773743, 0.10301649570465088, 0.619474470615387, 0.2851752042770386, 0.8209002017974854, -0.4947698712348938, -0.5594967007637024, 0.5617026090621948, 0.6094696521759033, 1.0
1509461, 6.130000114440918, 98.22899627685547, -18.25723648071289, -23.200807571411133, 17.58724594116211, -6.96386194229126, -7.684682846069336, 0.6963859796524048, 142.29339599609375, 172.71095275878906, 1.4399218559265137, -30.75604248046875, 0.24951171875, 0.2571277618408203, 0.8242752552032471, 0.05623816326260567, 0.5633887052536011, 0.2543890178203583, 0.8521766662597656, -0.4572530686855316, -0.5058223009109497, 0.520222544670105, 0.688122034072876, 1.0
1509471, 6.139999866485596, 98.20099639892578, -18.424734115600586, -22.77967071533203, 18.60658836364746, -6.951643943786621, -7.645586967468262, 0.6401860117912292, 144.41769409179688, 174.0753631591797, 2.5817952156066895, -31.718059539794922, 0.6614532470703125, 0.42353248596191406, 0.8652341365814209, 0.01381724327802658, 0.5011768341064453, 0.22654809057712555, 0.8809749484062195, -0.415401428937912, -0.4472644627094269, 0.4729604125022888, 0.7591196298599243, 1.0
1509481, 6.139999866485596, 98.177001953125, -16.673187255859375, -23.866012573242188, 20.870197296142578, -6.961418151855469, -7.393910884857178, 0.559552013874054, 146.47079467773438, 175.16262817382812, 3.7977092266082764, -32.464202880859375, 0.8739471435546875, 0.18023109436035156, 0.8998671770095825, -0.02373257651925087, 0.4355170428752899, 0.20252597332000732, 0.9070828557014465, -0.36903002858161926, -0.3862925171852112, 0.4202817976474762, 0.8210608959197998, 1.0
1509491, 6.139999866485596, 98.15699768066406, -16.151552200317383, -24.277578353881836, 22.2867488861084, -6.939426898956299, -7.186216831207275, 0.588873028755188, 148.3273468017578, 175.5566864013672, 4.129129886627197, -32.716976165771484, 0.6871337890625, 0.4707508087158203, 0.928489089012146, -0.056966058909893036, 0.3669634759426117, 0.1831873208284378, 0.9298284649848938, -0.3191559910774231, -0.32303255796432495, 0.3635561764240265, 0.8737714886665344, 1.0
1509501, 6.139999866485596, 98.13099670410156, -15.041281700134277, -24.952354431152344, 21.06162452697754, -6.809924125671387, -6.87589693069458, 0.6426299810409546, 150.2867431640625, 176.2902069091797, 4.923159599304199, -33.20354461669922, 0.2305145263671875, 0.07881355285644531, 0.9508917927742004, -0.08563179522752762, 0.2974412739276886, 0.16904616355895996, 0.9486669301986694, -0.2673078775405884, -0.2592831552028656, 0.30446237325668335, 0.9165558815002441, 1.0
1509511, 6.139999866485596, 98.10399627685547, -15.400205612182617, -24.291934967041016, 20.367704391479492, -6.726845741271973, -6.65109920501709, 0.7379249930381775, 152.35292053222656, 177.36961364746094, 5.868278503417969, -33.935279846191406, 0.4481201171875, 0.3081016540527344, 0.9676229357719421, -0.11035303771495819, 0.22699648141860962, 0.16008752584457397, 0.9636392593383789, -0.2139401137828827, -0.195134237408638, 0.24335278570652008, 0.950106143951416, 1.0
1509521, 6.139999866485596, 98.08599853515625, -15.586846351623535, -24.191436767578125, 19.28136444091797, -6.717072010040283, -6.5533599853515625, 0.8332200050354004, 154.1428985595703, 177.48268127441406, 5.848795413970947, -33.97613525390625, 0.666900634765625, 0.21383094787597656, 0.9791439175605774, -0.13129815459251404, 0.15504005551338196, 0.15593065321445465, 0.9748545289039612, -0.15919582545757294, -0.13023978471755981, 0.18005119264125824, 0.9749968647956848, 1.0
1509531, 6.139999866485596, 98.07499694824219, -16.347763061523438, -23.296520233154297, 17.898313522338867, -6.673089981079102, -6.502048015594482, 0.9089670181274414, 155.52218627929688, 176.19549560546875, 4.975765228271484, -33.0086784362793, 0.0352020263671875, -0.06046485900878906, 0.9855789542198181, -0.14813359081745148, 0.08179250359535217, 0.1562640517950058, 0.9822186827659607, -0.10405319929122925, -0.0649247094988823, 0.11533389985561371, 0.9912025928497314, 1.0
1509541, 6.139999866485596, 98.05699920654297, -16.687543869018555, -23.310876846313477, 17.10389518737793, -6.65109920501709, -6.526482105255127, 0.9382879734039307, 156.92886352539062, 175.03662109375, 3.8675622940063477, -32.150169372558594, -0.8711395263671875, 0.09462547302246094, 0.9870345592498779, -0.16034871339797974, 0.007111646234989166, 0.1605043262243271, 0.9858201742172241, -0.0489487461745739, 0.0008377432823181152, 0.049455538392066956, 0.998775839805603, 1.0
1509551, 6.139999866485596, 98.03900146484375, -16.816757202148438, -22.382461547851562, 15.299707412719727, -6.614447116851807, -6.6193342208862305, 0.9334009885787964, 158.35650634765625, 173.97750854492188, 3.6265666484832764, -31.345754623413086, -0.7824249267578125, -0.2502155303955078, 0.9834539294242859, -0.1675022840499878, -0.0689997747540474, 0.16826611757278442, 0.9857264757156372, 0.005366414785385132, 0.06711573153734207, -0.016888000071048737, 0.997602105140686, 1.0
1509561, 6.139999866485596, 98.01599884033203, -17.06082534790039, -21.693328857421875, 15.495919227600098, -6.5435872077941895, -6.692637920379639, 0.9138540029525757, 159.97276306152344, 173.59323120117188, 3.630537986755371, -31.034500122070312, -0.7106781005859375, 0.5645961761474609, 0.9747267365455627, -0.16943223774433136, -0.1456027328968048, 0.1793871521949768, 0.9820605516433716, 0.05810656398534775, 0.1331453174352646, -0.082757368683815, 0.9876351952552795, 1.0
1509571, 6.139999866485596, 97.98799896240234, -17.520246505737305, -20.980268478393555, 14.768501281738281, -6.587569236755371, -6.8245849609375, 0.8649839758872986, 161.871337890625, 174.18182373046875, 4.200423240661621, -31.424753189086914, -0.272247314453125, 0.3158836364746094, 0.9606978297233582, -0.16567373275756836, -0.22273677587509155, 0.19358982145786285, 0.9749150276184082, 0.10983031243085861, 0.19895322620868683, -0.1486334204673767, 0.9686720371246338, 1.0
1509581, 6.139999866485596, 97.9749984741211, -18.02273941040039, -20.305492401123047, 14.21336555480957, -6.592455863952637, -6.910106182098389, 0.7990109920501709, 163.3896942138672, 173.46339416503906, 3.7735204696655273, -30.875905990600586, 0.3575286865234375, 0.1800079345703125, 0.9413668513298035, -0.15607360005378723, -0.29911407828330994, 0.21066366136074066, 0.9644119739532471, 0.15977951884269714, 0.2635316550731659, -0.21342375874519348, 0.9407450556755066, 1.0
1509591, 6.139999866485596, 97.94300079345703, -19.01815414428711, -19.04686737060547, 15.108281135559082, -6.624220848083496, -7.032279014587402, 0.7183769941329956, 165.37232971191406, 174.34364318847656, 4.557581424713135, -31.473979949951172, -0.492279052734375, 0.12219810485839844, 0.9166026711463928, -0.14044351875782013, -0.3743191659450531, 0.23047666251659393, 0.950654923915863, 0.20768901705741882, 0.32667964696884155, -0.2766403257846832, 0.9037424325942993, 1.0
1509601, 6.139999866485596, 97.91799926757812, -19.21915054321289, -18.6975154876709, 15.347563743591309, -6.680419921875, -7.100696086883545, 0.5766559839248657, 167.37478637695312, 175.26902770996094, 5.289977073669434, -32.10130310058594, 0.54541015625, 0.18637466430664062, 0.8866709470748901, -0.11820712685585022, -0.4470362067222595, 0.2522992491722107, 0.9338569045066833, 0.2534864842891693, 0.38750380277633667, -0.3375462293624878, 0.8578479290008545, 1.0
1509611, 6.130000114440918, 97.89099884033203, -19.0707950592041, -18.352949142456055, 14.864212989807129, -6.743949890136719, -7.130016803741455, 0.43004900217056274, 169.46905517578125, 176.4822998046875, 6.45885705947876, -32.92214584350586, 0.569549560546875, 0.10529136657714844, 0.8518599271774292, -0.089466892182827, -0.5160715579986572, 0.27591395378112793, 0.9141579866409302, 0.29696062207221985, 0.44520270824432373, -0.3953604996204376, 0.80342036485672, 1.0
1509621, 6.130000114440918, 97.8759994506836, -17.596817016601562, -19.841283798217773, 16.17069435119629, -6.775714874267578, -7.115355968475342, 0.20769399404525757, 171.16860961914062, 176.32391357421875, 6.289927005767822, -32.76261901855469, 0.7511749267578125, 0.34876251220703125, 0.8126755356788635, -0.05405034124851227, -0.5802038908004761, 0.30038511753082275, 0.8920581340789795, 0.33763885498046875, 0.49932605028152466, -0.4486757814884186, 0.7411903738975525, 1.0
1509631, 6.139999866485596, 97.86499786376953, -16.721044540405273, -20.697914123535156, 16.074981689453125, -6.780601978302002, -7.056713104248047, 0.175928995013237, 172.4970703125, 174.9076385498047, 5.242791175842285, -31.701993942260742, -0.14434814453125, -0.00942230224609375, 0.7695826292037964, -0.014122862368822098, -0.6383906602859497, 0.32710230350494385, 0.8673388957977295, 0.37513497471809387, 0.5484030842781067, -0.4975167512893677, 0.6721091866493225, 1.0
1509641, 6.130000114440918, 97.83699798583984, -16.118053436279297, -21.286548614501953, 16.63968849182129, -6.756167888641357, -6.966304779052734, 0.18570199608802795, 174.24093627929688, 174.94149780273438, 5.239318370819092, -31.688364028930664, -0.9575653076171875, 0.013517379760742188, 0.7232909202575684, 0.02936720661818981, -0.6899183392524719, 0.35602256655693054, 0.8402137160301208, 0.40900829434394836, 0.5916903614997864, -0.5414588451385498, 0.5972641706466675, 1.0
1509651, 6.139999866485596, 97.83399963378906, -14.596217155456543, -22.82274055480957, 15.68734359741211, -6.73661994934082, -6.866123199462891, 0.20524999499320984, 175.2982177734375, 172.6400146484375, 3.5423669815063477, -30.00152587890625, -0.01202392578125, 0.0101776123046875, 0.6744608879089355, 0.07591231912374496, -0.734397292137146, 0.3868562877178192, 0.8108827471733093, 0.4391016960144043, 0.6288434267044067, -0.5802635550498962, 0.5175420641899109, 1.0
1509661, 6.139999866485596, 97.80799865722656, -13.85444164276123, -23.253450393676758, 16.218551635742188, -6.677977085113525, -6.812366962432861, 0.31520599126815796, 176.81118774414062, 171.9492645263672, 3.2345080375671387, -29.474185943603516, -1.5238189697265625, -0.010133743286132812, 0.6234250664710999, 0.12416677176952362, -0.7719607353210449, 0.42017242312431335, 0.7794317603111267, 0.4646936357021332, 0.659390389919281, -0.614058792591095, 0.4337463080883026, 1.0
1509671, 6.139999866485596, 97.8030014038086, -13.241880416870117, -24.033510208129883, 14.792428970336914, -6.587569236755371, -6.739063262939453, 0.43737900257110596, 177.82106018066406, 169.56858825683594, 1.3908987045288086, -27.748313903808594, -0.4701080322265625, 0.2199382781982422, 0.5709838271141052, 0.1734129935503006, -0.8024369478225708, 0.45554906129837036, 0.7462210655212402, 0.48541536927223206, 0.6829729080200195, -0.642714262008667, 0.34708237648010254, 1.0
1509681, 6.139999866485596, 97.78700256347656, -13.14138126373291, -23.88994026184082, 13.672588348388672, -6.516708850860596, -6.73661994934082, 0.5839869976043701, 178.94386291503906, 167.63467407226562, 0.1614006757736206, -26.346837997436523, -1.562103271484375, -0.11798286437988281, 0.5172418355941772, 0.2233017385005951, -0.8261942267417908, 0.4930555820465088, 0.7113114595413208, 0.5009302496910095, 0.6995403170585632, -0.6664623022079468, 0.25782012939453125, 1.0
1509691, 6.139999866485596, 97.76200103759766, -13.768301010131836, -23.100309371948242, 13.797015190124512, -6.3432230949401855, -6.819697856903076, 0.8136720061302185, 180.46176147460938, 167.0975799560547, -0.11313626170158386, -25.957128524780273, -1.260955810546875, 0.17233657836914062, 0.4622664749622345, 0.27228331565856934, -0.8439023494720459, 0.5331922173500061, 0.6750761866569519, 0.509879469871521, 0.7085303664207458, -0.6856629252433777, 0.1668858826160431, 1.0
1509701, 6.139999866485596, 97.7509994506836, -13.868799209594727, -23.09073829650879, 14.82114315032959, -6.269918918609619, -6.839244842529297, 0.8649839758872986, 181.6934814453125, 165.60313415527344, -1.2454063892364502, -24.888778686523438, -0.3487396240234375, 0.11541366577148438, 0.4066949486732483, 0.32178252935409546, -0.8550175428390503, 0.5738858580589294, 0.638215184211731, 0.5131620764732361, 0.7108120918273926, -0.6993834972381592, 0.07489253580570221, 1.0
1509711, 6.139999866485596, 97.7300033569336, -14.830714225769043, -21.731613159179688, 15.663415908813477, -6.218605995178223, -6.871009826660156, 0.9065229892730713, 183.1196746826172, 164.80950927734375, -1.533898949623108, -24.320133209228516, -0.9667205810546875, -0.06405448913574219, 0.3508910834789276, 0.3716549873352051, -0.8595043420791626, 0.614711582660675, 0.6009876728057861, 0.5108252167701721, 0.706402599811554, -0.7075918316841125, -0.01757936179637909, 1.0
1509721, 6.130000114440918, 97.697998046875, -14.47657585144043, -21.7459716796875, 15.730415344238281, -6.157519817352295, -6.797706127166748, 0.9040799736976624, 185.06405639648438, 165.8016815185547, -0.5789170265197754, -25.034774780273438, -0.505706787109375, 0.28073692321777344, 0.29608917236328125, 0.42157596349716187, -0.8570907711982727, 0.6544824838638306, 0.5640206336975098, 0.5035199522972107, 0.6956890821456909, -0.7100382447242737, -0.10891367495059967, 1.0
1509731, 6.130000114440918, 97.6760025024414, -15.261422157287598, -20.654844284057617, 15.141780853271484, -6.128198146820068, -6.763497829437256, 0.8991929888725281, 186.9415283203125, 166.54205322265625, 0.1657634973526001, -25.562829971313477, 0.6522216796875, 0.2408428192138672, 0.24240152537822723, 0.4713946580886841, -0.8479553461074829, 0.6930615305900574, 0.5274777412414551, 0.4913571774959564, 0.6789010167121887, -0.7067915201187134, -0.19884413480758667, 1.0
1509741, 6.139999866485596, 97.65599822998047, -16.223337173461914, -19.257436752319336, 17.11825180053711, -6.115981101989746, -6.7708282470703125, 0.8845319747924805, 188.7012481689453, 166.86424255371094, 0.6936514973640442, -25.78296661376953, 0.4830322265625, 0.21707725524902344, 0.18986642360687256, 0.5208593010902405, -0.8322595953941345, 0.730286717414856, 0.4916527271270752, 0.4742972254753113, 0.6562250852584839, -0.6978417634963989, -0.28702837228775024, 1.0
1509751, 6.139999866485596, 97.62699890136719, -16.71147346496582, -18.266807556152344, 16.898113250732422, -6.243041038513184, -6.795262813568115, 0.8112279772758484, 190.726318359375, 168.0828399658203, 1.9062509536743164, -26.640348434448242, 0.207489013671875, 0.3083934783935547, 0.13847707211971283, 0.5707681179046631, -0.8093501329421997, 0.7656660676002502, 0.45663702487945557, 0.45303094387054443, 0.6281551122665405, -0.6824268102645874, -0.3737841248512268, 1.0
1509761, 6.130000114440918, 97.60600280761719, -15.32363510131836, -19.20479393005371, 16.601402282714844, -6.318788051605225, -6.636437892913818, 0.6059780120849609, 192.60824584960938, 168.78524780273438, 2.7042880058288574, -27.120214462280273, 0.7843780517578125, 0.3559589385986328, 0.08933219313621521, 0.620266854763031, -0.7792872786521912, 0.7976230978965759, 0.4240354597568512, 0.42894089221954346, 0.5965034365653992, -0.659896194934845, -0.456859290599823, 1.0
1509771, 6.130000114440918, 97.58300018310547, -14.4861478805542, -20.08056640625, 16.118053436279297, -6.333448886871338, -6.548472881317139, 0.5473350286483765, 194.4846649169922, 169.45289611816406, 3.1379098892211914, -27.580190658569336, 0.4423675537109375, 0.3188343048095703, 0.04298369958996773, 0.6681033968925476, -0.7428258061408997, 0.8270741105079651, 0.39328911900520325, 0.40158557891845703, 0.5604461431503296, -0.6316340565681458, -0.5356661677360535, 1.0
1509781, 6.130000114440918, 97.56400299072266, -15.32363510131836, -19.39621925354004, 16.275978088378906, -6.3432230949401855, -6.499604225158691, 0.586430013179779, 196.2052459716797, 169.57228088378906, 3.096247673034668, -27.646644592285156, 0.414703369140625, -0.026409149169921875, 9.928271174430847e-05, 0.7137481570243835, -0.7004023194313049, 0.854418158531189, 0.36385828256607056, 0.37091198563575745, 0.5195850729942322, -0.5984737277030945, -0.6098034381866455, 1.0
1509791, 6.130000114440918, 97.552001953125, -14.782857894897461, -19.51107406616211, 15.251851081848145, -6.36765718460083, -6.492273807525635, 0.5742130279541016, 197.5821990966797, 168.5189971923828, 2.610065460205078, -26.860143661499023, 0.056976318359375, -0.10834121704101562, -0.0396207757294178, 0.7569271326065063, -0.6522969007492065, 0.8794220685958862, 0.3363454341888428, 0.3368791341781616, 0.4743902385234833, -0.5602973699569702, -0.6789849400520325, 1.0
1509801, 6.130000114440918, 97.53700256347656, -14.955141067504883, -19.391433715820312, 15.663415908813477, -6.372543811798096, -6.465395927429199, 0.586430013179779, 198.8824005126953, 167.23577880859375, 1.6362196207046509, -25.92281723022461, -0.701904296875, 0.3009452819824219, -0.07554574310779572, 0.7971344590187073, -0.5990570187568665, 0.9019197225570679, 0.31083348393440247, 0.29987049102783203, 0.4252442717552185, -0.5176478624343872, -0.7424337267875671, 1.0
1509811, 6.130000114440918, 97.51799774169922, -14.170294761657715, -19.673786163330078, 15.022139549255371, -6.348110198974609, -6.450735092163086, 0.5815430283546448, 200.2743377685547, 166.29852294921875, 1.296156644821167, -25.228256225585938, -0.8476104736328125, -0.03659629821777344, -0.10761282593011856, 0.8338631391525269, -0.5413792729377747, 0.9217321276664734, 0.2877598702907562, 0.26000580191612244, 0.3725966811180115, -0.4710271656513214, -0.7995654344558716, 1.0
1509821, 6.130000114440918, 97.49299621582031, -13.428520202636719, -20.204994201660156, 14.270792961120605, -6.36765718460083, -6.450735092163086, 0.586430013179779, 201.9436492919922, 166.33279418945312, 1.4560966491699219, -25.238874435424805, -0.617340087890625, 0.3552379608154297, -0.13557203114032745, 0.8670737743377686, -0.479377806186676, 0.9387760162353516, 0.26709744334220886, 0.21761758625507355, 0.31673121452331543, -0.4205259680747986, -0.8501994013786316, 1.0
1509831, 6.130000114440918, 97.47899627685547, -13.122239112854004, -20.405990600585938, 13.634303092956543, -6.272361755371094, -6.445847988128662, 0.681725025177002, 203.38180541992188, 165.5815887451172, 0.9795105457305908, -24.687685012817383, 0.0137939453125, 0.14963340759277344, -0.15839384496212006, 0.8961108922958374, -0.41460394859313965, 0.9531246423721313, 0.24840469658374786, 0.17276403307914734, 0.25780537724494934, -0.3678048849105835, -0.8934515118598938, 1.0
1509841, 6.139999866485596, 97.46900177001953, -13.816157341003418, -20.114065170288086, 13.825728416442871, -6.221049785614014, -6.475170135498047, 0.7330380082130432, 204.5244598388672, 163.84664916992188, -0.5456951856613159, -23.445985794067383, -0.4957275390625, 0.07475852966308594, -0.17641501128673553, 0.9210337400436401, -0.347238153219223, 0.9645524621009827, 0.2320946604013443, 0.12557682394981384, 0.19625267386436462, -0.3127761483192444, -0.9293307662010193, 1.0
1509851, 6.130000114440918, 97.447998046875, -13.883155822753906, -19.68814468383789, 14.208580017089844, -6.157519817352295, -6.482500076293945, 0.7648029923439026, 205.9131622314453, 162.99217224121094, -0.9094284772872925, -22.82957649230957, -1.1294708251953125, -0.28409767150878906, -0.18957076966762543, 0.9416822791099548, -0.278023898601532, 0.9728339314460754, 0.2184595763683319, 0.0766056627035141, 0.1328752040863037, -0.2559492588043213, -0.9575144648551941, 1.0
1509861, 6.130000114440918, 97.42900085449219, -13.533803939819336, -19.855640411376953, 14.615360260009766, -6.128198146820068, -6.467839241027832, 0.7525849938392639, 207.35931396484375, 162.35842895507812, -1.2323108911514282, -22.377843856811523, -0.54962158203125, 0.253204345703125, -0.1981256902217865, 0.9580101370811462, -0.20727458596229553, 0.9777771830558777, 0.20795705914497375, 0.026543214917182922, 0.06853288412094116, -0.19740980863571167, -0.9779224991798401, 1.0
1509871, 6.130000114440918, 97.40499877929688, -13.15095329284668, -19.90349769592285, 15.361921310424805, -6.0719990730285645, -6.42385721206665, 0.755029022693634, 209.01991271972656, 162.47218322753906, -0.912665069103241, -22.460834503173828, -0.4043731689453125, 0.129119873046875, -0.20187538862228394, 0.9699379801750183, -0.13589225709438324, 0.9794024229049683, 0.20048797130584717, -0.023966025561094284, 0.003999173641204834, -0.1379316747188568, -0.9904335737228394, 1.0
1509881, 6.119999885559082, 97.38899993896484, -13.04088306427002, -20.075780868530273, 15.203993797302246, -6.040234088897705, -6.374988079071045, 0.7696899771690369, 210.52297973632812, 162.04962158203125, -1.2510454654693604, -22.165861129760742, 0.0816192626953125, 0.23714828491210938, -0.20076216757297516, 0.9775314331054688, -0.06424112617969513, 0.9777899980545044, 0.19592469930648804, -0.07442498207092285, -0.06016639992594719, -0.07775634527206421, -0.9951550960540771, 1.0
1509891, 6.130000114440918, 97.3740005493164, -12.906885147094727, -20.15235137939453, 14.285149574279785, -6.008469104766846, -6.321231842041016, 0.8429930210113525, 211.88035583496094, 161.1427764892578, -1.852898359298706, -21.523578643798828, -0.26763916015625, -0.04349708557128906, -0.19431257247924805, 0.9809141159057617, 0.007082149386405945, 0.9731432795524597, 0.1936720609664917, -0.12442691624164581, -0.12342382967472076, -0.017286036163568497, -0.9922032952308655, 1.0
1509901, 6.130000114440918, 97.35800170898438, -15.098710060119629, -17.472389221191406, 13.538590431213379, -6.0133562088012695, -6.34566593170166, 0.8307759761810303, 213.2079315185547, 160.15956115722656, -2.210557222366333, -20.821388244628906, -0.5789642333984375, 0.04051399230957031, -0.1834626942873001, 0.9799253344535828, 0.07802450656890869, 0.9652718901634216, 0.1945980340242386, -0.1743004024028778, -0.18598492443561554, 0.04333700239658356, -0.9815961718559265, 1.0
1509911, 6.119999885559082, 97.33999633789062, -15.299707412719727, -17.429319381713867, 13.414162635803223, -6.101319789886475, -6.440960884094238, 0.7476980090141296, 214.58363342285156, 159.36984252929688, -2.868008613586426, -20.274658203125, -0.62451171875, 0.34525108337402344, -0.16883839666843414, 0.9743182063102722, 0.14898906648159027, 0.9539054036140442, 0.19957438111305237, -0.22412808239459991, -0.24810662865638733, 0.10427983105182648, -0.9631035327911377, 1.0
1509921, 6.130000114440918, 97.31600189208984, -14.428720474243164, -17.400604248046875, 13.543375015258789, -6.142858982086182, -6.492273807525635, 0.6841679811477661, 216.2129364013672, 159.46267700195312, -2.166071891784668, -20.341968536376953, -0.496917724609375, -0.11095237731933594, -0.15025506913661957, 0.9641121029853821, 0.21888647973537445, 0.939149022102356, 0.20836712419986725, -0.2730955481529236, -0.30890366435050964, 0.1645328253507614, -0.9367534518241882, 1.0
1509931, 6.139999866485596, 97.3030014038086, -13.945369720458984, -17.78824234008789, 14.165509223937988, -6.142858982086182, -6.494717121124268, 0.6010910272598267, 217.58343505859375, 158.67947387695312, -2.6451919078826904, -19.793983459472656, 0.0786590576171875, 0.6359519958496094, -0.12807264924049377, 0.9494216442108154, 0.2866983711719513, 0.9211539626121521, 0.22100071609020233, -0.32036375999450684, -0.3675210475921631, 0.22306331992149353, -0.9028679728507996, 1.0
1509941, 6.130000114440918, 97.28099822998047, -12.600603103637695, -18.94158363342285, 13.385449409484863, -6.152633190155029, -6.4800567626953125, 0.5668820142745972, 219.1282958984375, 158.51095581054688, -2.616011142730713, -19.687946319580078, -0.4929962158203125, 0.06900978088378906, -0.10203481465578079, 0.9304280281066895, 0.3519837558269501, 0.900219202041626, 0.23692937195301056, -0.3653336465358734, -0.42331215739250183, 0.2795856297016144, -0.8617645502090454, 1.0
1509951, 6.130000114440918, 97.25599670410156, -12.667601585388184, -18.821941375732422, 13.50030517578125, -6.159963130950928, -6.497160911560059, 0.5839869976043701, 220.88970947265625, 159.08460998535156, -2.1498374938964844, -20.116689682006836, -0.0919647216796875, 0.1354999542236328, -0.07175827026367188, 0.907338559627533, 0.41423118114471436, 0.8765192031860352, 0.25555434823036194, -0.4079275131225586, -0.47598716616630554, 0.3338092267513275, -0.8136381506919861, 1.0
1509961, 6.139999866485596, 97.24600219726562, -11.72482967376709, -17.8743839263916, 14.816356658935547, -6.020686149597168, -6.431187152862549, 0.6866120100021362, 222.2222137451172, 158.18519592285156, -1.486720085144043, -19.44584846496582, 0.3882904052734375, 0.03750801086425781, -0.0371132493019104, 0.8810505270957947, 0.47156402468681335, 0.8508148193359375, 0.2753715515136719, -0.4475303888320923, -0.524152398109436, 0.38460418581962585, -0.7598310708999634, 1.0
1509971, 6.130000114440918, 97.2300033569336, -12.978669166564941, -17.869598388671875, 15.041281700134277, -5.98159122467041, -6.34566593170166, 0.6914989948272705, 223.52830505371094, 157.23309326171875, -3.0096840858459473, -18.801481246948242, -0.5683441162109375, 1.3367443084716797, 0.0005046483129262924, 0.8513904213905334, 0.5245323181152344, 0.8232333660125732, 0.29742470383644104, -0.48355358839035034, -0.5677019953727722, 0.43205639719963074, -0.7007433176040649, 1.0
1509981, 6.130000114440918, 97.21099853515625, -13.189237594604492, -17.793027877807617, 15.17049503326416, -5.9913649559021, -6.279693126678467, 0.6719509959220886, 224.93768310546875, 156.6495361328125, -3.4997591972351074, -18.40778923034668, -0.606719970703125, -0.8804302215576172, 0.04060855880379677, 0.8183711767196655, 0.5732534527778625, 0.7939144372940063, 0.3219234049320221, -0.5158138275146484, -0.606671154499054, 0.47606056928634644, -0.6366442441940308, 1.0
1509991, 6.130000114440918, 97.18399810791016, -13.146166801452637, -17.304893493652344, 14.969497680664062, -5.9718170166015625, -6.184398174285889, 0.6719509959220886, 226.68678283691406, 157.2358856201172, -2.6914467811584473, -18.841463088989258, -0.3582916259765625, -0.09658432006835938, 0.08282497525215149, 0.7824158668518066, 0.6172239184379578, 0.7633731961250305, 0.3483296036720276, -0.5439913272857666, -0.6406251192092896, 0.5162282586097717, -0.5684252977371216, 1.0
1510001, 6.119999885559082, 97.16000366210938, -13.04088306427002, -17.065610885620117, 14.170294761657715, -5.949826240539551, -6.086658954620361, 0.6548470258712769, 228.5291290283203, 158.12733459472656, -1.7968981266021729, -19.492097854614258, 0.4022369384765625, 0.37541961669921875, 0.1266050487756729, 0.7438524961471558, 0.6562427282333374, 0.731883704662323, 0.376506507396698, -0.5679681301116943, -0.6695644855499268, 0.5522010326385498, -0.4967462718486786, 1.0
1510011, 6.119999885559082, 97.1520004272461, -12.79202938079834, -17.142181396484375, 12.811172485351562, -5.962042808532715, -6.054893970489502, 0.6475170254707336, 229.82945251464844, 157.154541015625, -2.362999439239502, -18.803918838500977, 0.594512939453125, 0.24442291259765625, 0.1720828115940094, 0.7027516961097717, 0.6903095841407776, 0.6993991136550903, 0.4063248634338379, -0.5879963636398315, -0.6937057375907898, 0.5839861035346985, -0.42158275842666626, 1.0
1510021, 6.130000114440918, 97.13099670410156, -12.825529098510742, -16.831113815307617, 12.686744689941406, -5.988921165466309, -6.084216117858887, 0.6401860117912292, 231.3145751953125, 156.83750915527344, -2.383298635482788, -18.587505340576172, -0.6181182861328125, 0.12233161926269531, 0.21935029327869415, 0.6592996120452881, 0.7191725969314575, 0.6658061742782593, 0.43765026330947876, -0.6042872667312622, -0.7131528258323669, 0.6113803386688232, -0.34296733140945435, 1.0
1510031, 6.119999885559082, 97.11199951171875, -12.275178909301758, -17.300106048583984, 12.705887794494629, -5.964486122131348, -6.101319789886475, 0.6133080124855042, 232.81536865234375, 156.5843505859375, -2.4916489124298096, -18.42133903503418, -0.18994140625, 0.19652366638183594, 0.2678699493408203, 0.6142293214797974, 0.7422720193862915, 0.6313133835792542, 0.4700816869735718, -0.6168187260627747, -0.7277970314025879, 0.6338337063789368, -0.2618507444858551, 1.0
1510041, 6.130000114440918, 97.09700012207031, -13.04088306427002, -16.716257095336914, 12.122038841247559, -5.986477851867676, -6.142858982086182, 0.6499599814414978, 234.18751525878906, 155.9013671875, -3.0875282287597656, -17.95366096496582, -0.1484527587890625, 0.0579376220703125, 0.3178718686103821, 0.5673775672912598, 0.7596313953399658, 0.5962968468666077, 0.5032681822776794, -0.6254197955131531, -0.7371479272842407, 0.6517695188522339, -0.17835089564323425, 1.0
1510051, 6.130000114440918, 97.0780029296875, -13.083952903747559, -16.19940948486328, 12.078968048095703, -5.957156181335449, -6.174623966217041, 0.6450729966163635, 235.6255645751953, 155.45974731445312, -3.058311939239502, -17.64883041381836, -0.4260101318359375, -0.12846946716308594, 0.36865943670272827, 0.519585907459259, 0.7707921266555786, 0.5608615875244141, 0.5369279980659485, -0.630191445350647, -0.7412989139556885, 0.664634108543396, -0.0934724360704422, 1.0
1510061, 6.139999866485596, 97.06199645996094, -13.246665000915527, -15.969697952270508, 12.394821166992188, -5.964486122131348, -6.194171905517578, 0.6133080124855042, 236.99703979492188, 154.80715942382812, -3.457663059234619, -17.201509475708008, -0.2659149169921875, 0.3347434997558594, 0.41963279247283936, 0.471049964427948, 0.7758995890617371, 0.5251795053482056, 0.5711966753005981, -0.6308086514472961, -0.7403340935707092, 0.6721949577331543, -0.007693126797676086, 1.0
1510071, 6.130000114440918, 97.04399871826172, -12.921241760253906, -16.046268463134766, 12.0454683303833, -5.966929912567139, -6.2063889503479, 0.5644389986991882, 238.39938354492188, 154.27777099609375, -3.642103910446167, -16.84136962890625, -0.4026641845703125, 0.048069000244140625, 0.4703117609024048, 0.42227795720100403, 0.7749117016792297, 0.48943665623664856, 0.6058588027954102, -0.6272045969963074, -0.7343421578407288, 0.6742522716522217, 0.07826407253742218, 1.0
1510081, 6.130000114440918, 97.03099822998047, -13.02652645111084, -15.969697952270508, 12.844671249389648, -5.957156181335449, -6.2259368896484375, 0.5375609993934631, 239.6444091796875, 153.22976684570312, -4.386432647705078, -16.11693572998047, -0.3203277587890625, 0.17606544494628906, 0.520506739616394, 0.3736729621887207, 0.7677507400512695, 0.4539516866207123, 0.6404498815536499, -0.6194760203361511, -0.7231876850128174, 0.6709635853767395, 0.16372892260551453, 1.0
1510091, 6.119999885559082, 97.00700378417969, -10.968698501586914, -17.592031478881836, 13.734801292419434, -5.966929912567139, -6.2234930992126465, 0.48380500078201294, 241.1974639892578, 153.2572021484375, -4.037644386291504, -16.158464431762695, -0.6548614501953125, -0.01993560791015625, 0.5696045160293579, 0.32562270760536194, 0.7546658515930176, 0.41892993450164795, 0.6749359965324402, -0.6074190139770508, -0.7071409225463867, 0.6621410846710205, 0.24803346395492554, 1.0
1510101, 6.119999885559082, 96.98300170898438, -10.097710609436035, -18.644872665405273, 14.026725769042969, -5.8691911697387695, -5.998694896697998, 0.5937600135803223, 242.92892456054688, 153.89361572265625, -3.676257610321045, -16.647531509399414, 0.0461578369140625, 0.30790138244628906, 0.6161612272262573, 0.2783429026603699, 0.736797571182251, 0.3870657682418823, 0.7077053189277649, -0.5910431146621704, -0.6859486103057861, 0.6493673324584961, 0.3283235728740692, 1.0
1510111, 6.119999885559082, 96.9729995727539, -9.226722717285156, -19.420148849487305, 13.174880981445312, -5.771452903747559, -5.8691911697387695, 0.7110459804534912, 244.24363708496094, 153.09519958496094, -4.157007217407227, -16.099510192871094, 0.4381256103515625, -0.1279468536376953, 0.6605786085128784, 0.23194648325443268, 0.7140285968780518, 0.3580799698829651, 0.73858642578125, -0.5711983442306519, -0.6598596572875977, 0.6330010890960693, 0.40483906865119934, 1.0
1510121, 6.130000114440918, 96.96399688720703, -10.40399169921875, -18.295520782470703, 12.246465682983398, -5.700592994689941, -5.7958879470825195, 0.8405500054359436, 245.29293823242188, 151.41696166992188, -5.3659539222717285, -14.927570343017578, -0.493072509765625, 0.06741142272949219, 0.7029459476470947, 0.18630878627300262, 0.6864081621170044, 0.33194926381111145, 0.7675857543945312, -0.5482887029647827, -0.6290284991264343, 0.6132703423500061, 0.47772637009620667, 1.0
1510131, 6.130000114440918, 96.95099639892578, -11.60040283203125, -17.156538009643555, 11.20798110961914, -5.634618759155273, -5.783669948577881, 0.9358450174331665, 246.33018493652344, 149.7428436279297, -6.566761016845703, -13.767366409301758, -1.0595245361328125, -0.03708457946777344, 0.7432621717453003, 0.14179284870624542, 0.6538015007972717, 0.3082682490348816, 0.7947568297386169, -0.522810697555542, -0.5937443375587463, 0.5901319980621338, 0.5470025539398193, 1.0
1510141, 6.130000114440918, 96.93499755859375, -11.428119659423828, -17.228321075439453, 11.533404350280762, -5.585750102996826, -5.8471999168396, 0.9505059719085693, 247.4709014892578, 148.46563720703125, -7.366506099700928, -12.89678955078125, -1.0490264892578125, -0.04068756103515625, 0.7815518379211426, 0.09909278154373169, 0.6159201860427856, 0.28616800904273987, 0.820351779460907, -0.4951055645942688, -0.554332971572876, 0.5632075667381287, 0.6127904057502747, 1.0
1510151, 6.130000114440918, 96.91699981689453, -10.963912963867188, -17.5011043548584, 11.054840087890625, -5.571088790893555, -5.891182899475098, 0.91874098777771, 248.74569702148438, 147.67977905273438, -7.745960235595703, -12.382112503051758, -0.7843017578125, 0.07098007202148438, 0.8173244595527649, 0.05863265320658684, 0.5731868743896484, 0.2655197083950043, 0.8445532321929932, -0.4650029242038727, -0.5113515853881836, 0.5322509407997131, 0.6747061014175415, 1.0
1510161, 6.119999885559082, 96.89900207519531, -11.552547454833984, -16.888540267944336, 10.49970531463623, -5.50267219543457, -5.918061256408691, 0.9407320022583008, 250.10076904296875, 147.18983459472656, -8.024981498718262, -12.085926055908203, -0.4610443115234375, 0.13550567626953125, 0.850242018699646, 0.020554084330797195, 0.5259907245635986, 0.24698002636432648, 0.8668444156646729, -0.43310537934303284, -0.4648545980453491, 0.4981538951396942, 0.7319513559341431, 1.0
1510171, 6.130000114440918, 96.88600158691406, -12.973883628845215, -15.17049503326416, 11.49990463256836, -5.448915958404541, -6.023128986358643, 0.8918629884719849, 251.3211212158203, 146.25576782226562, -8.434083938598633, -11.467418670654297, -0.26702880859375, 0.017200469970703125, 0.8804036378860474, -0.014401456341147423, 0.4740065038204193, 0.22970902919769287, 0.8874003887176514, -0.3996911644935608, -0.4148777723312378, 0.4607734680175781, 0.7845789194107056, 1.0
1510181, 6.130000114440918, 96.86900329589844, -13.136595726013184, -14.534004211425781, 12.413963317871094, -5.458690166473389, -6.076886177062988, 0.8063409924507141, 252.60662841796875, 145.57098388671875, -8.540148735046387, -11.02660083770752, -0.552734375, 0.20984268188476562, 0.9072805047035217, -0.0459492951631546, 0.4180081784725189, 0.2137172818183899, 0.9064558744430542, -0.3642271161079407, -0.3621703088283539, 0.4197920560836792, 0.8322302103042603, 1.0
1510191, 6.119999885559082, 96.83799743652344, -13.131810188293457, -13.978869438171387, 12.476177215576172, -5.531993865966797, -6.1257548332214355, 0.7159330248832703, 254.4402313232422, 146.7717742919922, -7.234814167022705, -11.936138153076172, -0.3887176513671875, 0.3354511260986328, 0.9306453466415405, -0.07399808615446091, 0.3583622872829437, 0.1991090327501297, 0.9240713119506836, -0.32626134157180786, -0.30700987577438354, 0.3749871253967285, 0.8747166991233826, 1.0
