timestamp__ms,temp__C,pressure__kpa,accel_x__m_s2,accel_y__m_s2,accel_z__m_s2,gyro_x__dps,gyro_y__dps,gyro_z__dps,e_alt__m,e_vel__m_s,e_acc__m_s2,e_bias,innovation0,innovation1,r1c1,r1c2,r1c3,r2c1,r2c2,r2c3,r3c1,r3c2,r3c3,effort
549966, 3.430000066757202, 99.947998046875, 5.19720983505249, 8.432306289672852, -0.12921200692653656, -0.007329999934881926, 0.0, 0.0, -0.00034981220960617065, -0.4642312526702881, -0.955659031867981, 10.593181610107422, 0.0, 0.0, 1.0, 0.0, 0.0, 0.0, 1.0, 0.0, 0.0, 0.0, 1.0, 0.0
549976, 3.430000066757202, 99.94499969482422, 5.206780910491943, 8.422735214233398, -0.13399800658226013, -0.0048859999515116215, 0.0, 0.0, 0.07679376006126404, -0.009451329708099365, -0.2037498950958252, 9.841272354125977, 0.0, 0.0, 1.0, 0.0, 0.0, 0.0, 1.0, 0.0, 0.0, 0.0, 1.0, 0.0
549986, 3.430000066757202, 99.9469985961914, 5.192424774169922, 8.437091827392578, -0.1435689926147461, -0.0048859999515116215, 0.0024429999757558107, 0.0, 0.12438519299030304, 0.25914618372917175, 0.23449555039405823, 9.403027534484863, 0.0, 0.0, 1.0, 0.0, 0.0, 0.0, 1.0, 0.0, 0.0, 0.0, 1.0, 0.0
549996, 3.430000066757202, 99.94200134277344, 5.1828532218933105, 8.437091827392578, -0.15792599320411682, -0.0048859999515116215, 0.0024429999757558107, 0.0, 0.21325278282165527, 0.750968337059021, 1.0205668210983276, 8.610189437866211, 0.0, 0.0, 1.0, 0.0, 0.0, 0.0, 1.0, 0.0, 0.0, 0.0, 1.0, 0.0
550006, 3.440000057220459, 99.947998046875, 5.187639236450195, 8.437091827392578, -0.15313999354839325, -0.0048859999515116215, 0.0, 0.0, 0.16055697202682495, 0.41926953196525574, 0.4701877236366272, 9.16395092010498, 0.0, 0.0, 1.0, 0.0, 0.0, 0.0, 1.0, 0.0, 0.0, 0.0, 1.0, 0.0
550016, 3.430000066757202, 99.94499969482422, 5.192424774169922, 8.437091827392578, -0.13878299295902252, -0.007329999934881926, 0.0, 0.0, 0.24468544125556946, 0.8774056434631348, 1.2077178955078125, 8.429805755615234, 0.0, 0.0, 1.0, 0.0, 0.0, 0.0, 1.0, 0.0, 0.0, 0.0, 1.0, 0.0
550026, 3.430000066757202, 99.94300079345703, 5.192424774169922, 8.437091827392578, -0.12442599982023239, -0.0048859999515116215, 0.0024429999757558107, 0.0, 0.2341662347316742, 0.7796674370765686, 1.0298917293548584, 8.60763168334961, 0.0, 0.0, 1.0, 0.0, 0.0, 0.0, 1.0, 0.0, 0.0, 0.0, 1.0, 0.0
550036, 3.440000057220459, 99.9530029296875, 5.19720983505249, 8.441878318786621, -0.11964099854230881, -0.0048859999515116215, 0.0, 0.0, -0.0019982457160949707, -0.5945981740951538, -1.2056117057800293, 10.849902153015137, 0.0, 0.0, 1.0, 0.0, 0.0, 0.0, 1.0, 0.0, 0.0, 0.0, 1.0, 0.0
550046, 3.430000066757202, 99.9520034790039, 5.187639236450195, 8.441878318786621, -0.12442599982023239, -0.0024429999757558107, 0.0024429999757558107, 0.0, -0.05421090126037598, -0.8688362836837769, -1.6367177963256836, 11.274240493774414, 0.0, 0.0, 1.0, 0.0, 0.0, 0.0, 1.0, 0.0, 0.0, 0.0, 1.0, 0.0
550056, 3.430000066757202, 99.94499969482422, 5.192424774169922, 8.446662902832031, -0.13878299295902252, -0.0024429999757558107, 0.0024429999757558107, 0.0, -0.050449855625629425, -0.8140993118286133, -1.5150268077850342, 11.159318923950195, 0.0, 0.0, 1.0, 0.0, 0.0, 0.0, 1.0, 0.0, 0.0, 0.0, 1.0, 0.0
550066, 3.430000066757202, 99.94400024414062, 5.19720983505249, 8.432306289672852, -0.15313999354839325, -0.0024429999757558107, 0.0048859999515116215, 0.0, -0.013573341071605682, -0.573383629322052, -1.1072487831115723, 10.744771957397461, 0.0, 0.0, 1.0, 0.0, 0.0, 0.0, 1.0, 0.0, 0.0, 0.0, 1.0, 0.0
550076, 3.4200000762939453, 99.94300079345703, 5.201995849609375, 8.427520751953125, -0.15792599320411682, -0.007329999934881926, 0.0, 0.0, 0.08047667890787125, -0.017953455448150635, -0.18990081548690796, 9.827423095703125, 0.0, 0.0, 1.0, 0.0, 0.0, 0.0, 1.0, 0.0, 0.0, 0.0, 1.0, 0.0
550086, 3.430000066757202, 99.95099639892578, 5.192424774169922, 8.441878318786621, -0.1627109944820404, -0.0048859999515116215, 0.0, 0.0, -0.032062336802482605, -0.6573431491851807, -1.2189266681671143, 10.859833717346191, 0.0, 0.0, 1.0, 0.0, 0.0, 0.0, 1.0, 0.0, 0.0, 0.0, 1.0, 0.0
550096, 3.430000066757202, 99.94999694824219, 5.187639236450195, 8.437091827392578, -0.13878299295902252, -0.007329999934881926, 0.0, 0.0, -0.17556023597717285, -1.44611656665802, -2.483013153076172, 12.11715316772461, 0.0, 0.0, 1.0, 0.0, 0.0, 0.0, 1.0, 0.0, 0.0, 0.0, 1.0, 0.0
550106, 3.440000057220459, 99.94999694824219, 5.1828532218933105, 8.446662902832031, -0.13399800658226013, -0.0048859999515116215, 0.0, 0.0, -0.25024235248565674, -1.811944842338562, -3.0319247245788574, 12.66944694519043, 0.0, 0.0, 1.0, 0.0, 0.0, 0.0, 1.0, 0.0, 0.0, 0.0, 1.0, 0.0
550116, 3.430000066757202, 99.94499969482422, 5.187639236450195, 8.437091827392578, -0.13399800658226013, -0.0048859999515116215, 0.0, 0.0, -0.2617209553718567, -1.803722620010376, -2.9727864265441895, 12.606926918029785, 0.0, 0.0, 1.0, 0.0, 0.0, 0.0, 1.0, 0.0, 0.0, 0.0, 1.0, 0.0
550126, 3.430000066757202, 99.9469985961914, 5.192424774169922, 8.427520751953125, -0.13399800658226013, -0.0048859999515116215, 0.0024429999757558107, 0.0, -0.257634699344635, -1.7070749998092651, -2.7714195251464844, 12.402175903320312, 0.0, 0.0, 1.0, 0.0, 0.0, 0.0, 1.0, 0.0, 0.0, 0.0, 1.0, 0.0
550136, 3.440000057220459, 99.9520034790039, 5.192424774169922, 8.441878318786621, -0.1435689926147461, -0.0048859999515116215, 0.0024429999757558107, 0.0, -0.28311359882354736, -1.7817120552062988, -2.8375792503356934, 12.478486061096191, 0.0, 0.0, 1.0, 0.0, 0.0, 0.0, 1.0, 0.0, 0.0, 0.0, 1.0, 0.0
550146, 3.430000066757202, 99.9469985961914, 5.187639236450195, 8.437091827392578, -0.13399800658226013, -0.0024429999757558107, 0.0024429999757558107, 0.0, -0.22484706342220306, -1.3775726556777954, -2.1437478065490723, 11.777887344360352, 0.0, 0.0, 1.0, 0.0, 0.0, 0.0, 1.0, 0.0, 0.0, 0.0, 1.0, 0.0
550156, 3.430000066757202, 99.94499969482422, 5.19720983505249, 8.432306289672852, -0.13878299295902252, -0.0024429999757558107, 0.0024429999757558107, 0.0, -0.254962295293808, -1.4911149740219116, -2.289621353149414, 11.927143096923828, 0.0, 0.0, 1.0, 0.0, 0.0, 0.0, 1.0, 0.0, 0.0, 0.0, 1.0, 0.0
550166, 3.430000066757202, 99.94400024414062, 5.192424774169922, 8.427520751953125, -0.14835500717163086, -0.0024429999757558107, 0.0024429999757558107, 0.0, -0.23025882244110107, -1.2885823249816895, -1.931128978729248, 11.561883926391602, 0.0, 0.0, 1.0, 0.0, 0.0, 0.0, 1.0, 0.0, 0.0, 0.0, 1.0, 0.0
550176, 3.430000066757202, 99.94599914550781, 5.19720983505249, 8.437091827392578, -0.15792599320411682, -0.0024429999757558107, 0.0024429999757558107, 0.0, -0.17774507403373718, -0.9362586736679077, -1.3195083141326904, 10.960415840148926, 0.0, 0.0, 1.0, 0.0, 0.0, 0.0, 1.0, 0.0, 0.0, 0.0, 1.0, 0.0
550186, 3.440000057220459, 99.947998046875, 5.19720983505249, 8.427520751953125, -0.15792599320411682, -0.0048859999515116215, 0.0024429999757558107, 0.0, -0.16625364124774933, -0.8307505249977112, -1.1338404417037964, 10.76797866821289, 0.0, 0.0, 1.0, 0.0, 0.0, 0.0, 1.0, 0.0, 0.0, 0.0, 1.0, 0.0
550196, 3.430000066757202, 99.9469985961914, 5.192424774169922, 8.437091827392578, -0.14835500717163086, -0.0048859999515116215, 0.0024429999757558107, 0.0, -0.12355279922485352, -0.5523382425308228, -0.6613643169403076, 10.29888916015625, 0.0, 0.0, 1.0, 0.0, 0.0, 0.0, 1.0, 0.0, 0.0, 0.0, 1.0, 0.0
550206, 3.440000057220459, 99.94599914550781, 5.192424774169922, 8.437091827392578, -0.1435689926147461, -0.0048859999515116215, 0.0, 0.0, -0.1982414424419403, -0.9512183666229248, -1.29656982421875, 10.934093475341797, 0.0, 0.0, 1.0, 0.0, 0.0, 0.0, 1.0, 0.0, 0.0, 0.0, 1.0, 0.0
550216, 3.440000057220459, 99.94999694824219, 5.187639236450195, 8.437091827392578, -0.11964099854230881, -0.0024429999757558107, 0.0024429999757558107, 0.0, -0.23097842931747437, -1.095597267150879, -1.5126440525054932, 11.146783828735352, 0.0, 0.0, 1.0, 0.0, 0.0, 0.0, 1.0, 0.0, 0.0, 0.0, 1.0, 0.0
550226, 3.440000057220459, 99.94999694824219, 5.187639236450195, 8.437091827392578, -0.11006899923086166, 0.0, 0.0024429999757558107, 0.0, -0.25836697220802307, -1.2035354375839233, -1.6629358530044556, 11.297075271606445, 0.0, 0.0, 1.0, 0.0, 0.0, 0.0, 1.0, 0.0, 0.0, 0.0, 1.0, 0.0
550236, 3.430000066757202, 99.94400024414062, 5.201995849609375, 8.422735214233398, -0.12442599982023239, 0.0024429999757558107, 0.0048859999515116215, 0.0, -0.18324695527553558, -0.7251603603363037, -0.8613656163215637, 10.495505332946777, 0.0, 0.0, 1.0, 0.0, 0.0, 0.0, 1.0, 0.0, 0.0, 0.0, 1.0, 0.0
550246, 3.430000066757202, 99.94400024414062, 5.211566925048828, 8.427520751953125, -0.1435689926147461, 0.0024429999757558107, 0.0048859999515116215, 0.0, -0.1192094087600708, -0.3290243148803711, -0.1961234211921692, 9.840414047241211, 0.0, 0.0, 1.0, 0.0, 0.0, 0.0, 1.0, 0.0, 0.0, 0.0, 1.0, 0.0
550256, 3.430000066757202, 99.94400024414062, 5.211566925048828, 8.413164138793945, -0.17706799507141113, 0.0, 0.0048859999515116215, 0.0, -0.01613723486661911, 0.2725864052772522, 0.7714283466339111, 8.862710952758789, 0.0, 0.0, 1.0, 0.0, 0.0, 0.0, 1.0, 0.0, 0.0, 0.0, 1.0, 0.0
550266, 3.440000057220459, 99.94200134277344, 5.19720983505249, 8.437091827392578, -0.21056799590587616, -0.0024429999757558107, 0.0024429999757558107, 0.0, 0.08566325157880783, 0.8422461152076721, 1.6879463195800781, 7.952960014343262, 0.0, 0.0, 1.0, 0.0, 0.0, 0.0, 1.0, 0.0, 0.0, 0.0, 1.0, 0.0
550276, 3.430000066757202, 99.9489974975586, 5.178068161010742, 8.4562349319458, -0.22013899683952332, -0.007329999934881926, -0.0024429999757558107, 0.0, 0.06027745082974434, 0.6668134927749634, 1.3765325546264648, 8.264374732971191, 0.0, 0.0, 1.0, 0.0, 0.0, 0.0, 1.0, 0.0, 0.0, 0.0, 1.0, 0.0
550286, 3.430000066757202, 99.9469985961914, 5.178068161010742, 8.437091827392578, -0.12442599982023239, -0.012217000126838684, -0.0048859999515116215, 0.0, 0.0031613633036613464, 0.3182670474052429, 0.7767355442047119, 8.85063648223877, 0.0, 0.0, 1.0, 0.0, 0.0, 0.0, 1.0, 0.0, 0.0, 0.0, 1.0, 0.0
550296, 3.430000066757202, 99.94999694824219, 5.19720983505249, 8.432306289672852, -0.08135499805212021, -0.00977300014346838, -0.0024429999757558107, 0.0, 0.03697890415787697, 0.49964088201522827, 1.0676831007003784, 8.569839477539062, 0.0, 0.0, 1.0, 0.0, 0.0, 0.0, 1.0, 0.0, 0.0, 0.0, 1.0, 0.0
550306, 3.440000057220459, 99.94499969482422, 5.187639236450195, 8.437091827392578, -0.057427000254392624, -0.0048859999515116215, 0.0024429999757558107, 0.0024429999757558107, 0.14636322855949402, 1.102327585220337, 2.0230627059936523, 7.611077308654785, 0.0, 0.0, 1.0, 0.0, 0.0, 0.0, 1.0, 0.0, 0.0, 0.0, 1.0, 0.0
550316, 3.430000066757202, 99.94499969482422, 5.187639236450195, 8.446662902832031, -0.08135499805212021, 0.0, 0.0048859999515116215, 0.0, 0.09506380558013916, 0.7683558464050293, 1.4560446739196777, 8.18486213684082, 0.0, 0.0, 1.0, 0.0, 0.0, 0.0, 1.0, 0.0, 0.0, 0.0, 1.0, 0.0
550326, 3.430000066757202, 99.947998046875, 5.178068161010742, 8.451449394226074, -0.11485499888658524, 0.0024429999757558107, 0.007329999934881926, 0.0, 0.11345101147890091, 0.8432373404502869, 1.5504502058029175, 8.087074279785156, 0.0, 0.0, 1.0, 0.0, 0.0, 0.0, 1.0, 0.0, 0.0, 0.0, 1.0, 0.0
550336, 3.430000066757202, 99.9489974975586, 5.19720983505249, 8.437091827392578, -0.1818539947271347, 0.0048859999515116215, 0.007329999934881926, 0.0024429999757558107, 0.08253875374794006, 0.6350545883178711, 1.191502571105957, 8.4494047164917, 0.0, 0.0, 1.0, 0.0, 0.0, 0.0, 1.0, 0.0, 0.0, 0.0, 1.0, 0.0
550346, 3.430000066757202, 99.94100189208984, 5.221138000488281, 8.413164138793945, -0.21056799590587616, 0.0, 0.0048859999515116215, 0.0, 0.16840337216854095, 1.0978063344955444, 1.9215503931045532, 7.719356060028076, 0.0, 0.0, 1.0, 0.0, 0.0, 0.0, 1.0, 0.0, 0.0, 0.0, 1.0, 0.0
550356, 3.440000057220459, 99.94400024414062, 5.221138000488281, 8.413164138793945, -0.2057819962501526, -0.00977300014346838, -0.0024429999757558107, 0.0, 0.19428648054599762, 1.201050043106079, 2.057619094848633, 7.583287239074707, 0.0, 0.0, 1.0, 0.0, 0.0, 0.0, 1.0, 0.0, 0.0, 0.0, 1.0, 0.0
550366, 3.4200000762939453, 99.94499969482422, 5.168496131896973, 8.446662902832031, -0.16749699413776398, -0.012217000126838684, -0.0048859999515116215, 0.0, 0.21507491171360016, 1.2708498239517212, 2.1242291927337646, 7.5031418800354, 0.0, 0.0, 1.0, 0.0, 0.0, 0.0, 1.0, 0.0, 0.0, 0.0, 1.0, 0.0
550376, 3.430000066757202, 99.94599914550781, 5.1589250564575195, 8.465806007385254, -0.13878299295902252, -0.012217000126838684, -0.0048859999515116215, 0.0, 0.21596726775169373, 1.2244428396224976, 2.021233081817627, 7.612905979156494, 0.0, 0.0, 1.0, 0.0, 0.0, 0.0, 1.0, 0.0, 0.0, 0.0, 1.0, 0.0
550386, 3.430000066757202, 99.94599914550781, 5.173282146453857, 8.446662902832031, -0.10528399795293808, -0.00977300014346838, -0.0024429999757558107, 0.0, 0.2314620018005371, 1.2625243663787842, 2.046893835067749, 7.583860874176025, 0.0, 0.0, 1.0, 0.0, 0.0, 0.0, 1.0, 0.0, 0.0, 0.0, 1.0, 0.0
550396, 3.430000066757202, 99.9469985961914, 5.201995849609375, 8.422735214233398, -0.08135499805212021, -0.0048859999515116215, 0.0, 0.0, 0.2585584223270416, 1.364524245262146, 2.1821937561035156, 7.4519453048706055, 0.0, 0.0, 1.0, 0.0, 0.0, 0.0, 1.0, 0.0, 0.0, 0.0, 1.0, 0.0
550406, 3.430000066757202, 99.94599914550781, 5.206780910491943, 8.422735214233398, -0.09571199864149094, -0.0048859999515116215, 0.0, 0.0, 0.2352299839258194, 1.1759330034255981, 1.844742774963379, 7.792780876159668, 0.0, 0.0, 1.0, 0.0, 0.0, 0.0, 1.0, 0.0, 0.0, 0.0, 1.0, 0.0
550416, 3.440000057220459, 99.947998046875, 5.187639236450195, 8.441878318786621, -0.12921200692653656, 0.0, 0.0024429999757558107, 0.0, 0.22900894284248352, 1.0918337106704712, 1.6786860227584839, 7.958836555480957, 0.0, 0.0, 1.0, 0.0, 0.0, 0.0, 1.0, 0.0, 0.0, 0.0, 1.0, 0.0
550426, 3.440000057220459, 99.9489974975586, 5.187639236450195, 8.437091827392578, -0.18663999438285828, -0.0024429999757558107, 0.0024429999757558107, 0.0024429999757558107, 0.1607791781425476, 0.6590459942817688, 0.9474068880081177, 8.686732292175293, 0.0, 0.0, 1.0, 0.0, 0.0, 0.0, 1.0, 0.0, 0.0, 0.0, 1.0, 0.0
550436, 3.430000066757202, 99.9489974975586, 5.216352939605713, 8.422735214233398, -0.15792599320411682, -0.0024429999757558107, 0.0024429999757558107, 0.0, 0.06920845061540604, 0.111270010471344, 0.05486506223678589, 9.589426040649414, 0.0, 0.0, 1.0, 0.0, 0.0, 0.0, 1.0, 0.0, 0.0, 0.0, 1.0, 0.0
550446, 3.430000066757202, 99.947998046875, 5.216352939605713, 8.413164138793945, -0.13878299295902252, -0.0048859999515116215, 0.0, 0.0, -0.057142458856105804, -0.6114445924758911, -1.1228787899017334, 10.760401725769043, 0.0, 0.0, 1.0, 0.0, 0.0, 0.0, 1.0, 0.0, 0.0, 0.0, 1.0, 0.0
550456, 3.430000066757202, 99.9520034790039, 5.187639236450195, 8.441878318786621, -0.12921200692653656, -0.0048859999515116215, 0.0, 0.0, -0.12999220192432404, -1.001020908355713, -1.735544204711914, 11.373066902160645, 0.0, 0.0, 1.0, 0.0, 0.0, 0.0, 1.0, 0.0, 0.0, 0.0, 1.0, 0.0
550466, 3.430000066757202, 99.94100189208984, 5.178068161010742, 8.451449394226074, -0.13399800658226013, -0.0048859999515116215, 0.0, 0.0, 0.001258254051208496, -0.21634972095489502, -0.43680596351623535, 10.074329376220703, -0.3351244330406189, 0.0, 1.0, 2.436116346871131e-06, -1.3799785847368184e-05, -2.436116346871131e-06, 1.0, 6.470968855865067e-06, 1.3799785847368184e-05, -6.470968855865067e-06, 1.0, 0.0
550476, 3.430000066757202, 99.94400024414062, 5.173282146453857, 8.4562349319458, -0.15313999354839325, -0.0024429999757558107, 0.0024429999757558107, 0.0, 0.06609830260276794, 0.15959432721138, 0.1790408492088318, 9.45848274230957, 0.710401713848114, 9.5367431640625e-07, 1.0, 4.871984856436029e-06, -3.169616320519708e-06, -4.872301360592246e-06, 1.0, -1.148808587458916e-05, 3.169588126183953e-06, 1.1488094969536178e-05, 1.0, 0.0
550486, 3.4200000762939453, 99.94100189208984, 5.19720983505249, 8.441878318786621, -0.15792599320411682, -0.0024429999757558107, 0.0024429999757558107, 0.0, 0.16770654916763306, 0.7288186550140381, 1.1044455766677856, 8.539844512939453, 0.3368645906448364, 0.0, 1.0, 7.308044132514624e-06, 7.460509550583083e-06, -7.308295153052313e-06, 1.0, -2.9447166525642388e-05, -7.460653250745963e-06, 2.944713196484372e-05, 1.0, 0.0
550496, 3.430000066757202, 99.9469985961914, 5.211566925048828, 8.422735214233398, -0.16749699413776398, -0.0048859999515116215, 0.0, 0.0, 0.15654218196868896, 0.6348471641540527, 0.9311168789863586, 8.709789276123047, 0.5026093125343323, 0.006766319274902344, 1.0, 9.744112503540237e-06, -6.339229003060609e-06, -9.744818271428812e-06, 1.0, -2.2976097170612775e-05, 6.339060746540781e-06, 2.2976144464337267e-05, 1.0, 0.0
550506, 3.430000066757202, 99.9469985961914, 5.192424774169922, 8.441878318786621, -0.1627109944820404, -0.0048859999515116215, 0.0, 0.0, 0.14683948457241058, 0.5528174042701721, 0.7832077145576477, 8.857699394226074, -0.09301871061325073, -0.003383636474609375, 1.0, 1.2180269550299272e-05, -2.013895209529437e-05, -1.2181251804577187e-05, 1.0, -1.6504993254784495e-05, 2.0138790205237456e-05, 1.6505189705640078e-05, 1.0, 0.0
550516, 3.440000057220459, 99.9489974975586, 5.178068161010742, 8.451449394226074, -0.1627109944820404, -0.007329999934881926, 0.0, 0.0, 0.10692688822746277, 0.3025895655155182, 0.36205190420150757, 9.275471687316895, -0.0809059590101242, 9.5367431640625e-07, 1.0, 1.461700776417274e-05, -3.3938362321350724e-05, -1.4617595297750086e-05, 1.0, 1.4406141417566687e-05, 3.3938536944333464e-05, -1.4405728506972082e-05, 1.0, 0.0
550526, 3.430000066757202, 99.94400024414062, 5.187639236450195, 8.446662902832031, -0.14835500717163086, -0.007329999934881926, 0.0, 0.0, 0.15493108332157135, 0.5613210201263428, 0.7784333229064941, 8.86247444152832, -0.22857868671417236, -0.003383636474609375, 1.0, 1.7054173440556042e-05, -4.773769614985213e-05, -1.7053513147402555e-05, 1.0, 4.531730883172713e-05, 4.773835826199502e-05, -4.531661397777498e-05, 1.0, 0.0
550536, 3.440000057220459, 99.9489974975586, 5.19720983505249, 8.437091827392578, -0.12442599982023239, -0.007329999934881926, 0.0, 0.0, 0.11347644776105881, 0.301814466714859, 0.3456040322780609, 9.295303344726562, 0.22596660256385803, 0.0033845901489257812, 1.0, 1.9491764760459773e-05, -6.153695721877739e-05, -1.948900353454519e-05, 1.0, 7.622851262567565e-05, 6.153825233923271e-05, -7.62274648877792e-05, 1.0, 0.0
550546, 3.430000066757202, 99.9469985961914, 5.201995849609375, 8.427520751953125, -0.11964099854230881, -0.0048859999515116215, 0.0, 0.0, 0.10965131968259811, 0.2663426995277405, 0.27929216623306274, 9.358230590820312, -0.23675508797168732, 0.0, 1.0, 2.1928279238636605e-05, -7.533661846537143e-05, -2.1924068278167397e-05, 1.0, 8.269974932773039e-05, 7.533822645200416e-05, -8.269827958429232e-05, 1.0, 0.0
550556, 3.440000057220459, 99.9520034790039, 5.192424774169922, 8.437091827392578, -0.1435689926147461, -0.0024429999757558107, 0.0024429999757558107, 0.0, 0.027024030685424805, -0.21489596366882324, -0.5045086741447449, 10.142032623291016, -0.03448062390089035, -0.0033845901489257812, 1.0, 2.4363042030017823e-05, -6.470680091297254e-05, -2.4361062969546765e-05, 1.0, 6.474048859672621e-05, 6.47082197247073e-05, -6.473906978499144e-05, 1.0, 0.0
550566, 3.430000066757202, 99.9469985961914, 5.1828532218933105, 8.441878318786621, -0.14835500717163086, -0.0024429999757558107, 0.0024429999757558107, 0.0024429999757558107, 0.03622713312506676, -0.1553846001625061, -0.4032464623451233, 10.037385940551758, -0.4287349581718445, 9.5367431640625e-07, 1.0, 2.3679970126977423e-06, -5.4077027016319335e-05, -2.3678683191974415e-06, 1.0, 4.6781198761891574e-05, 5.407657954492606e-05, -4.67814679723233e-05, 1.0, 0.0
550576, 3.430000066757202, 99.94400024414062, 5.19720983505249, 8.432306289672852, -0.15313999354839325, -0.0024429999757558107, 0.0024429999757558107, 0.0, 0.0945991724729538, 0.1807258427143097, 0.15082794427871704, 9.486695289611816, 0.057181403040885925, -0.0033845901489257812, 1.0, 4.80314201922738e-06, -4.3446856579976156e-05, -4.804482159670442e-06, 1.0, 2.8822143576689996e-05, 4.344647823018022e-05, -2.8822307285736315e-05, 1.0, 0.0
550586, 3.430000066757202, 99.94200134277344, 5.201995849609375, 8.427520751953125, -0.14835500717163086, -0.0024429999757558107, 0.0024429999757558107, 0.0, 0.17360593378543854, 0.620232880115509, 0.8600887656211853, 8.777435302734375, 0.3012843728065491, 0.003383636474609375, 1.0, 7.238478247018065e-06, -3.281672979937866e-05, -7.2409047788823955e-06, 1.0, 1.0863062925636768e-05, 3.281633325968869e-05, -1.0863172065000981e-05, 1.0, 0.0
550596, 3.440000057220459, 99.9469985961914, 5.19720983505249, 8.427520751953125, -0.13878299295902252, -0.0024429999757558107, 0.0024429999757558107, 0.0, 0.16038817167282104, 0.518397331237793, 0.6779797077178955, 8.956157684326172, 0.3879610300064087, 9.5367431640625e-07, 1.0, 9.674005013948772e-06, -2.2186646674526855e-05, -9.677136404206976e-06, 1.0, -7.096043191268109e-06, 2.2186144633451477e-05, 7.095937689882703e-06, 1.0, 0.0
550606, 3.430000066757202, 99.94599914550781, 5.192424774169922, 8.432306289672852, -0.12921200692653656, -0.0048859999515116215, 0.0, 0.0, 0.1660761535167694, 0.5278445482254028, 0.6823009848594666, 8.951838493347168, -0.09782001376152039, -0.0033864974975585938, 1.0, 1.2110264833609108e-05, -3.598636976676062e-05, -1.2113350749132223e-05, 1.0, -6.249406396818813e-07, 3.5985911381430924e-05, 6.250229489523917e-07, 1.0, 0.0
550616, 3.4200000762939453, 99.94599914550781, 5.187639236450195, 8.432306289672852, -0.12921200692653656, -0.0024429999757558107, 0.0024429999757558107, 0.0, 0.17070823907852173, 0.5308064818382263, 0.6727743148803711, 8.957982063293457, 0.0023626983165740967, 1.9073486328125e-06, 1.0, 1.4545734302373603e-05, -2.535637395340018e-05, -1.4549460502166767e-05, 1.0, -1.8584099962026812e-05, 2.535569728934206e-05, 1.858413997979369e-05, 1.0, 0.0
550626, 3.430000066757202, 99.94300079345703, 5.201995849609375, 8.427520751953125, -0.16749699413776398, -0.0048859999515116215, 0.0024429999757558107, 0.0, 0.22185245156288147, 0.7974246740341187, 1.1001677513122559, 8.537354469299316, -0.0034199506044387817, -0.003383636474609375, 1.0, 1.6982014130917378e-05, -1.4726067092851736e-05, -1.6985379261313938e-05, 1.0, -1.2113285265513696e-05, 1.472543863201281e-05, 1.2113232514820993e-05, 1.0, 0.0
550636, 3.440000057220459, 99.94599914550781, 5.201995849609375, 8.427520751953125, -0.17228299379348755, -0.0048859999515116215, 0.0024429999757558107, 0.0, 0.21756300330162048, 0.7385281324386597, 0.986981987953186, 8.650542259216309, 0.23020006716251373, 0.006766319274902344, 1.0, 1.9418224837863818e-05, -4.09574386139866e-06, -1.942136623256374e-05, 1.0, -5.642496944346931e-06, 4.095196345588192e-06, 5.642299129249295e-06, 1.0, 0.0
550646, 3.430000066757202, 99.95099639892578, 5.19720983505249, 8.427520751953125, -0.17228299379348755, -0.007329999934881926, -0.0024429999757558107, 0.0, 0.13359703123569489, 0.22977715730667114, 0.1438920497894287, 9.490245819091797, -0.06191296875476837, 1.9073486328125e-06, 1.0, 2.185446828661952e-05, -4.232492938172072e-05, -2.185769881180022e-05, 1.0, 2.526921161916107e-05, 4.232496576150879e-05, -2.526865864638239e-05, 1.0, 0.0
550656, 3.4200000762939453, 99.94599914550781, 5.192424774169922, 8.437091827392578, -0.1627109944820404, -0.00977300014346838, 0.0, 0.0, 0.14228227734565735, 0.26741868257522583, 0.20579186081886292, 9.431731224060059, -0.4593726396560669, -0.0033864974975585938, 1.0, 2.4292927264468744e-05, -5.612350651063025e-05, -2.4293465685332194e-05, 1.0, 8.061047992669046e-05, 5.6124812545021996e-05, -8.0609526776243e-05, 1.0, 0.0
550666, 3.430000066757202, 99.94599914550781, 5.1828532218933105, 8.4562349319458, -0.13878299295902252, -0.00977300014346838, -0.0024429999757558107, 0.0, 0.14954343438148499, 0.2954452931880951, 0.25439316034317017, 9.389898300170898, 0.032066747546195984, 0.0033855438232421875, 1.0, 2.6732150217867456e-05, -9.435194078832865e-05, -2.6726500436780043e-05, 1.0, 0.00013595237396657467, 9.435479296371341e-05, -0.00013595036580227315, 1.0, 0.0
550676, 3.430000066757202, 99.9540023803711, 5.1828532218933105, 8.441878318786621, -0.11485499888658524, -0.007329999934881926, -0.0024429999757558107, 0.0, 0.027733586728572845, -0.4100143611431122, -0.9019158482551575, 10.536054611206055, 0.023001983761787415, 0.006768226623535156, 1.0, 2.9171182177378796e-05, -0.00013258089893497527, -2.9157419703551568e-05, 1.0, 0.00016686436720192432, 0.0001325849152635783, -0.00016686110757291317, 1.0, 0.0
550686, 3.430000066757202, 99.947998046875, 5.192424774169922, 8.432306289672852, -0.11006899923086166, -0.0048859999515116215, 0.0, 0.0, 0.018895011395215988, -0.4456641972064972, -0.9450394511222839, 10.579177856445312, -0.6271200180053711, -0.010152816772460938, 1.0, 3.1608156859874725e-05, -0.00014638049469795078, -3.1591232982464135e-05, 1.0, 0.00017333573487121612, 0.00014638510765507817, -0.00017333176219835877, 1.0, 0.0
550696, 3.440000057220459, 99.94499969482422, 5.192424774169922, 8.437091827392578, -0.13878299295902252, 0.0, 0.0024429999757558107, 0.0, 0.06126982346177101, -0.18911778926849365, -0.5110293626785278, 10.148552894592285, -0.02358834631741047, 0.0, 1.0, 3.4038068406516686e-05, -0.00013575161574408412, -3.402919173822738e-05, 1.0, 0.0001309463696088642, 0.00013575531193055212, -0.0001309423678321764, 1.0, 0.0
550706, 3.430000066757202, 99.94400024414062, 5.192424774169922, 8.437091827392578, -0.15792599320411682, 0.0, 0.0024429999757558107, 0.0, 0.11438463628292084, 0.1180291473865509, -0.005385160446166992, 9.642909049987793, 0.23560887575149536, 0.0033855438232421875, 1.0, 3.6468431062530726e-05, -0.00012512283865362406, -3.646670302259736e-05, 1.0, 8.85569752426818e-05, 0.00012512541434261948, -8.855300256982446e-05, 1.0, 0.0
550716, 3.440000057220459, 99.95099639892578, 5.19720983505249, 8.427520751953125, -0.17706799507141113, -0.0024429999757558107, 0.0024429999757558107, 0.0, 0.04593775421380997, -0.27709823846817017, -0.6484116315841675, 10.282549858093262, 0.2765844166278839, 0.0, 1.0, 3.89023007301148e-05, -0.00011449328303569928, -3.8903763197595254e-05, 1.0, 7.059755444061011e-05, 0.00011449542216723785, -7.059366907924414e-05, 1.0, 0.0
550726, 3.430000066757202, 99.94400024414062, 5.19720983505249, 8.427520751953125, -0.1818539947271347, -0.0048859999515116215, 0.0024429999757558107, 0.0, 0.10139290243387222, 0.04698541760444641, -0.11311769485473633, 9.747255325317383, -0.34993964433670044, -0.0033855438232421875, 1.0, 4.133916081627831e-05, -0.00010386281792307273, -4.1340630559716374e-05, 1.0, 7.706810720264912e-05, 0.00010386538633611053, -7.706436008447781e-05, 1.0, 0.0
550736, 3.430000066757202, 99.947998046875, 5.19720983505249, 8.437091827392578, -0.17706799507141113, -0.007329999934881926, 0.0, 0.0, 0.08159076422452927, -0.0691400095820427, -0.29278039932250977, 9.933686256408691, 0.2928031384944916, -9.5367431640625e-07, 1.0, 4.377848745207302e-05, -0.00011766132956836373, -4.377568620839156e-05, 1.0, 0.00010797964932862669, 0.00011766536044888198, -0.00010797507275128737, 1.0, 0.0
550746, 3.430000066757202, 99.94599914550781, 5.1828532218933105, 8.441878318786621, -0.17706799507141113, -0.00977300014346838, -0.0024429999757558107, 0.0, 0.09821169078350067, 0.026247985661029816, -0.14012449979782104, 9.774263381958008, -0.10185710340738297, 0.006768226623535156, 1.0, 4.6221117372624576e-05, -0.00015588868700433522, -4.620767504093237e-05, 1.0, 0.00016332228551618755, 0.00015589540998917073, -0.00016331576625816524, 1.0, 0.0
550756, 3.430000066757202, 99.947998046875, 5.173282146453857, 8.451449394226074, -0.1435689926147461, -0.007329999934881926, -0.0024429999757558107, 0.0, 0.07887531816959381, -0.08632034808397293, -0.3201395273208618, 9.954277992248535, 0.08708402514457703, -0.00676727294921875, 1.0, 4.866205563303083e-05, -0.00019411704852245748, -4.863755020778626e-05, 1.0, 0.00019423502089921385, 0.00019412559049669653, -0.00019422636250965297, 1.0, 0.0
550766, 3.430000066757202, 99.94999694824219, 5.192424774169922, 8.432306289672852, -0.08614099770784378, -0.0048859999515116215, 0.0, 0.0, 0.031388554722070694, -0.35398000478744507, -0.7483810186386108, 10.38252067565918, -0.09846716374158859, 0.0, 1.0, 5.109942867420614e-05, -0.00020791651331819594, -5.1070986955892295e-05, 1.0, 0.00020070666505489498, 0.00020792585564777255, -0.0002006968716159463, 1.0, 0.0
550776, 3.430000066757202, 99.9489974975586, 5.192424774169922, 8.441878318786621, -0.09571199864149094, -0.0024429999757558107, 0.0024429999757558107, 0.0, 0.007121969014406204, -0.4788583815097809, -0.9319315552711487, 10.572837829589844, -0.23424610495567322, 9.5367431640625e-07, 1.0, 5.353181404643692e-05, -0.00019728721235878766, -5.350923674996011e-05, 1.0, 0.000182747098733671, 0.00019729613268282264, -0.00018273733439855278, 1.0, 0.0
550786, 3.430000066757202, 99.94499969482422, 5.1828532218933105, 8.441878318786621, -0.11485499888658524, 0.0, 0.0048859999515116215, 0.0, 0.051573872566223145, -0.20851537585258484, -0.4856176972389221, 10.119756698608398, -0.10398320853710175, 0.00676727294921875, 1.0, 5.5959568271646276e-05, -0.00016222926205955446, -5.595176116912626e-05, 1.0, 0.00014035619096830487, 0.0001622363633941859, -0.00014034782361704856, 1.0, 0.0
550796, 3.440000057220459, 99.9520034790039, 5.192424774169922, 8.437091827392578, -0.15313999354839325, 0.0, 0.0024429999757558107, 0.0, -0.02333224192261696, -0.626430869102478, -1.1512173414230347, 10.788741111755371, 0.24771320819854736, -0.00676727294921875, 1.0, 5.838881043018773e-05, -0.000151601416291669, -5.8389370678924024e-05, 1.0, 9.796656377147883e-05, 0.00015160648035816848, -9.795840014703572e-05, 1.0, 0.0
550806, 3.440000057220459, 99.94999694824219, 5.19720983505249, 8.432306289672852, -0.16749699413776398, 0.0, 0.0048859999515116215, 0.0024429999757558107, -0.05484268441796303, -0.7808667421340942, -1.382657527923584, 11.020180702209473, -0.3658706843852997, 0.0033845901489257812, 1.0, 3.638850466813892e-05, -0.00011654367699520662, -3.639892383944243e-05, 1.0, 5.557548502110876e-05, 0.00011654411355266348, -5.5572701967321336e-05, 1.0, 0.0
550816, 3.430000066757202, 99.94599914550781, 5.206780910491943, 8.427520751953125, -0.16749699413776398, -0.0024429999757558107, 0.0024429999757558107, 0.0, -0.01682063192129135, -0.5342506170272827, -0.9576432704925537, 10.598549842834473, -0.1265958845615387, -9.5367431640625e-07, 1.0, 3.88225307688117e-05, -0.00010591412137728184, -3.883563113049604e-05, 1.0, 3.761606785701588e-05, 0.00010591404134174809, -3.761339030461386e-05, 1.0, 0.0
550826, 3.430000066757202, 99.94999694824219, 5.206780910491943, 8.432306289672852, -0.16749699413776398, -0.0024429999757558107, 0.0024429999757558107, 0.0, -0.04888053238391876, -0.6951538920402527, -1.1994153261184692, 10.843705177307129, 0.23068922758102417, 0.003383636474609375, 1.0, 4.125674604438245e-05, -9.528460213914514e-05, -4.127214924665168e-05, 1.0, 1.9656625227071345e-05, 9.528392547508702e-05, -1.9654102288768627e-05, 1.0, 0.0
550836, 3.440000057220459, 99.94999694824219, 5.187639236450195, 8.441878318786621, -0.14835500717163086, -0.0048859999515116215, 0.0024429999757558107, 0.0, -0.07586009800434113, -0.8204498291015625, -1.3894349336624146, 11.026958465576172, -0.1340389847755432, 0.003383636474609375, 1.0, 4.369347880128771e-05, -8.465412247460335e-05, -4.370847454993054e-05, 1.0, 2.6127156161237508e-05, 8.465376595268026e-05, -2.612483876873739e-05, 1.0, 0.0
550846, 3.4200000762939453, 99.94400024414062, 5.187639236450195, 8.432306289672852, -0.12921200692653656, -0.0024429999757558107, 0.0024429999757558107, 0.0, -0.0005531236529350281, -0.3600933253765106, -0.6280210614204407, 10.258776664733887, -0.10035795718431473, -0.006766319274902344, 1.0, 4.6128076064633206e-05, -7.402469054795802e-05, -4.614486897480674e-05, 1.0, 8.167662599589676e-06, 7.402362098218873e-05, -8.165603503584862e-06, 1.0, 0.0
550856, 3.4200000762939453, 99.94000244140625, 5.19720983505249, 8.427520751953125, -0.14835500717163086, -0.0024429999757558107, 0.0024429999757558107, 0.0, 0.12488862127065659, 0.3660121560096741, 0.5612189173698425, 9.072918891906738, 0.4200715720653534, -0.006768226623535156, 1.0, 4.8562866140855476e-05, -6.339530227705836e-05, -4.858107422478497e-05, 1.0, -9.79185824689921e-06, 6.339343235595152e-05, 9.793606295716017e-06, 1.0, 0.0
550866, 3.430000066757202, 99.94400024414062, 5.19720983505249, 8.427520751953125, -0.15313999354839325, -0.0024429999757558107, 0.0024429999757558107, 0.0, 0.16983501613140106, 0.6057296395301819, 0.9403101801872253, 8.693827629089355, 0.6487166881561279, 0.0033826828002929688, 1.0, 5.0997845391975716e-05, -5.27659612998832e-05, -5.1017086661886424e-05, 1.0, -2.7751404559239745e-05, 5.276319643598981e-05, 2.7752790629165247e-05, 1.0, 0.0
550876, 3.430000066757202, 99.947998046875, 5.192424774169922, 8.432306289672852, -0.16749699413776398, -0.0024429999757558107, 0.0, 0.0, 0.14093296229839325, 0.4165014326572418, 0.6186635494232178, 9.015475273132324, 0.20736069977283478, 0.0, 1.0, 5.343301745597273e-05, -6.656665937043726e-05, -5.345358658814803e-05, 1.0, -4.57097303296905e-05, 6.656291225226596e-05, 4.571194949676283e-05, 1.0, 0.0
550886, 3.440000057220459, 99.95099639892578, 5.187639236450195, 8.437091827392578, -0.1818539947271347, -0.0048859999515116215, 0.0, 0.0, 0.06961964815855026, -0.005762815475463867, -0.07513439655303955, 9.709274291992188, -0.17593932151794434, 9.5367431640625e-07, 1.0, 5.586956467595883e-05, -8.036610233830288e-05, -5.5890333896968514e-05, 1.0, -3.923802432836965e-05, 8.036258805077523e-05, 3.924114571418613e-05, 1.0, 0.0
550896, 3.430000066757202, 99.94300079345703, 5.1828532218933105, 8.437091827392578, -0.1627109944820404, -0.0048859999515116215, 0.0, 0.0, 0.13654926419258118, 0.37360280752182007, 0.5371220111846924, 9.093634605407715, -0.37950390577316284, 9.5367431640625e-07, 1.0, 5.83062028454151e-05, -9.416552347829565e-05, -5.832699389429763e-05, 1.0, -3.276628558523953e-05, 9.416227840119973e-05, 3.27703746734187e-05, 1.0, 0.0
550906, 3.440000057220459, 99.95099639892578, 5.201995849609375, 8.422735214233398, -0.12921200692653656, -0.0048859999515116215, 0.0, 0.0, 0.0657612755894661, -0.044038861989974976, -0.14459747076034546, 9.77873706817627, 0.3366917371749878, -0.003383636474609375, 1.0, 6.0742928326362744e-05, -0.0001079649300663732, -6.076356294215657e-05, 1.0, -2.6294512281310745e-05, 0.00010796198330353945, 2.629963455547113e-05, 1.0, 0.0
550916, 3.440000057220459, 99.94300079345703, 5.19720983505249, 8.432306289672852, -0.12921200692653656, -0.0048859999515116215, 0.0024429999757558107, 0.0, 0.133149191737175, 0.33942416310310364, 0.48196667432785034, 9.155555725097656, -0.374687135219574, 0.0033826828002929688, 1.0, 6.317974475678056e-05, -9.733432671055198e-05, -6.319940439425409e-05, 1.0, -1.9824188711936586e-05, 9.733170736581087e-05, 1.9828928998322226e-05, 1.0, 0.0
550926, 3.430000066757202, 99.9469985961914, 5.187639236450195, 8.441878318786621, -0.14835500717163086, -0.0048859999515116215, 0.0024429999757558107, 0.0, 0.12571653723716736, 0.2826736569404602, 0.3822658360004425, 9.255257606506348, 0.3409363329410553, 0.0033826828002929688, 1.0, 6.561649206560105e-05, -8.670370152685791e-05, -6.563530769199133e-05, 1.0, -1.3353891517908778e-05, 8.670144597999752e-05, 1.335819615633227e-05, 1.0, 0.0
550936, 3.430000066757202, 99.947998046875, 5.178068161010742, 8.441878318786621, -0.15792599320411682, -0.0048859999515116215, 0.0024429999757558107, 0.0, 0.1029825434088707, 0.14135242998600006, 0.14068274199962616, 9.490073204040527, -0.054536283016204834, 9.5367431640625e-07, 1.0, 6.80531666148454e-05, -7.607306179124862e-05, -6.80712764733471e-05, 1.0, -6.883620244479971e-06, 7.6071206422057e-05, 6.887438303238014e-06, 1.0, 0.0
550946, 3.430000066757202, 99.94400024414062, 5.187639236450195, 8.437091827392578, -0.17228299379348755, -0.0048859999515116215, 0.0024429999757558107, 0.0, 0.15047112107276917, 0.4041560888290405, 0.5672420859336853, 9.06689739227295, -0.12856239080429077, -0.00676727294921875, 1.0, 7.048977568047121e-05, -6.54424075037241e-05, -7.050731801427901e-05, 1.0, -4.133748916501645e-07, 6.544098141603172e-05, 4.1665498429210857e-07, 1.0, 0.0
550956, 3.430000066757202, 99.9469985961914, 5.201995849609375, 8.427520751953125, -0.1627109944820404, -0.007329999934881926, 0.0, 0.0, 0.14011389017105103, 0.32796669006347656, 0.43795692920684814, 9.199566841125488, 0.23153439164161682, 0.003383636474609375, 1.0, 7.2927912697196e-05, -7.924001693027094e-05, -7.294343959074467e-05, 1.0, 3.0498564228764735e-05, 7.92407663539052e-05, -3.0494153179461136e-05, 1.0, 0.0
550966, 3.430000066757202, 99.9469985961914, 5.206780910491943, 8.422735214233398, -0.15792599320411682, -0.007329999934881926, 0.0, 0.0, 0.13120195269584656, 0.26304495334625244, 0.32573503255844116, 9.311787605285645, -0.07250979542732239, 0.0033845901489257812, 1.0, 7.536647899542004e-05, -9.303754632128403e-05, -7.53791318857111e-05, 1.0, 6.141053745523095e-05, 9.304062405135483e-05, -6.140492769191042e-05, 1.0, 0.0
550976, 3.430000066757202, 99.94499969482422, 5.178068161010742, 8.446662902832031, -0.13878299295902252, -0.007329999934881926, 0.0, 0.0, 0.15695911645889282, 0.39743441343307495, 0.5348053574562073, 9.099333763122559, -0.06138421595096588, -9.5367431640625e-07, 1.0, 7.78054672991857e-05, -0.00010683500295272097, -7.781440217513591e-05, 1.0, 9.232254524249583e-05, 0.0001068405617843382, -9.231566946255043e-05, 1.0, 0.0
550986, 3.440000057220459, 99.94599914550781, 5.178068161010742, 8.451449394226074, -0.11964099854230881, -0.0048859999515116215, 0.0, 0.0, 0.16235469281673431, 0.41069495677948, 0.5508944392204285, 9.086629867553711, 0.11615131795406342, -0.003383636474609375, 1.0, 8.024227281566709e-05, -0.00012063428584951907, -8.024924318306148e-05, 1.0, 9.879458957584575e-05, 0.00012064057227689773, -9.878637501969934e-05, 1.0, 0.0
550996, 3.430000066757202, 99.94599914550781, 5.192424774169922, 8.441878318786621, -0.11485499888658524, -0.0024429999757558107, 0.0024429999757558107, 0.0, 0.16678357124328613, 0.4178743064403534, 0.5568727850914001, 9.084033966064453, 0.007008537650108337, 0.0033855438232421875, 1.0, 8.267621888080612e-05, -0.00011000551603501663, -8.268640522146598e-05, 1.0, 8.083471038844436e-05, 0.00011001060192938894, -8.082705608103424e-05, 1.0, 0.0
551006, 3.430000066757202, 99.94000244140625, 5.206780910491943, 8.427520751953125, -0.11485499888658524, 0.0, 0.0024429999757558107, 0.0, 0.2652098536491394, 0.9580596685409546, 1.42258882522583, 8.218318939208984, 0.0014795660972595215, 0.0033826828002929688, 1.0, 8.510766929248348e-05, -9.937880531651899e-05, -8.51233780849725e-05, 1.0, 3.844479942927137e-05, 9.938058792613447e-05, -3.843775630230084e-05, 1.0, 0.0
551016, 3.430000066757202, 99.94499969482422, 5.201995849609375, 8.427520751953125, -0.13399800658226013, 0.0, 0.0024429999757558107, 0.0, 0.2699148952960968, 0.9442174434661865, 1.3738632202148438, 8.26366138458252, 0.4735410809516907, 9.5367431640625e-07, 1.0, 8.753957081353292e-05, -8.875220373738557e-05, -8.755989983910695e-05, 1.0, -3.945136995753273e-06, 8.87504720594734e-05, 3.951518010580912e-06, 1.0, 0.0
551026, 3.430000066757202, 99.94400024414062, 5.192424774169922, 8.432306289672852, -0.1627109944820404, -0.0024429999757558107, 0.0024429999757558107, 0.0, 0.29066982865333557, 1.0217565298080444, 1.4739001989364624, 8.160239219665527, -0.024861574172973633, -0.003383636474609375, 1.0, 8.997409167932346e-05, -7.812356489012018e-05, -8.999597048386931e-05, 1.0, -2.1905098037677817e-05, 7.812025432940573e-05, 2.1910764189669862e-05, 1.0, 0.0
551036, 3.430000066757202, 99.94300079345703, 5.19720983505249, 8.437091827392578, -0.17706799507141113, -0.007329999934881926, 0.0, 0.0, 0.3219102621078491, 1.1553642749786377, 1.6729352474212646, 7.967971324920654, 0.05651172995567322, -0.0033855438232421875, 1.0, 9.241262159775943e-05, -9.192057041218504e-05, -9.243239037459716e-05, 1.0, 9.007109838421457e-06, 9.191998833557591e-05, -9.00001214176882e-06, 1.0, 0.0
551046, 3.430000066757202, 99.94599914550781, 5.201995849609375, 8.427520751953125, -0.17706799507141113, -0.007329999934881926, 0.0, 0.0, 0.30060261487960815, 0.9851590991020203, 1.366955041885376, 8.27056884765625, 0.10528889298439026, 0.00676727294921875, 1.0, 9.485158079769462e-05, -0.00010571749589871615, -9.486838098382577e-05, 1.0, 3.99193522753194e-05, 0.00010571979510132223, -3.991075573139824e-05, 1.0, 0.0
551056, 3.430000066757202, 99.94499969482422, 5.192424774169922, 8.437091827392578, -0.15792599320411682, -0.007329999934881926, 0.0, 0.0, 0.29848048090934753, 0.9305001497268677, 1.2563092708587646, 8.381214141845703, -0.16557881236076355, -0.0033826828002929688, 1.0, 9.729096200317144e-05, -0.00011951434862567112, -9.730394231155515e-05, 1.0, 7.0831629273016e-05, 0.0001195196746266447, -7.082146476022899e-05, 1.0, 0.0
551066, 3.430000066757202, 99.95099639892578, 5.1828532218933105, 8.441878318786621, -0.12921200692653656, -0.00977300014346838, 0.0, 0.0, 0.1999630331993103, 0.3309060335159302, 0.2617557644844055, 9.372383117675781, -0.06052255630493164, 0.0, 1.0, 9.973369014915079e-05, -0.00013330875663086772, -9.97390816337429e-05, 1.0, 0.00012617393804248422, 0.00013331964146345854, -0.00012616213643923402, 1.0, 0.0
551076, 3.440000057220459, 99.9489974975586, 5.1828532218933105, 8.446662902832031, -0.12442599982023239, -0.007329999934881926, -0.0024429999757558107, 0.0, 0.1476820707321167, 0.018023252487182617, -0.245866596698761, 9.88338851928711, -0.542223334312439, -0.0033845901489257812, 1.0, 0.00010217392264166847, -0.00017153545923065394, -0.00010217037197435275, 1.0, 0.0001570887106936425, 0.00017154973465949297, -0.00015707279089838266, 1.0, 0.0
551086, 3.430000066757202, 99.9469985961914, 5.168496131896973, 8.461019515991211, -0.11006899923086166, -0.0048859999515116215, 0.0, 0.0, 0.13475415110588074, -0.058743227273225784, -0.3661937713623047, 10.003716468811035, -0.2794570326805115, 0.0033826828002929688, 1.0, 0.00010461115016369149, -0.00018533458933234215, -0.00010460431803949177, 1.0, 0.00016356108244508505, 0.0001853498979471624, -0.00016354334366042167, 1.0, 0.0
551096, 3.430000066757202, 99.947998046875, 5.201995849609375, 8.441878318786621, -0.09571199864149094, -0.0024429999757558107, 0.0024429999757558107, 0.0, 0.10745711624622345, -0.2138555347919464, -0.6016152501106262, 10.249290466308594, -0.06581875681877136, 9.5367431640625e-07, 1.0, 0.00010704393935156986, -0.00017470624879933894, -0.00010704217129386961, 1.0, 0.00014560093404725194, 0.00017472007311880589, -0.00014558386465068907, 1.0, 0.0
551106, 3.440000057220459, 99.94999694824219, 5.206780910491943, 8.427520751953125, -0.10528399795293808, 0.0024429999757558107, 0.0048859999515116215, 0.0, 0.05325060710310936, -0.5151423811912537, -1.0863025188446045, 10.72721004486084, -0.13414840400218964, 0.010152816772460938, 1.0, 0.00010946838301606476, -0.00013965318794362247, -0.00010948339331662282, 1.0, 7.877814641688019e-05, 0.00013966020196676254, -7.876440940890461e-05, 1.0, 0.0
551116, 3.430000066757202, 99.94300079345703, 5.19720983505249, 8.437091827392578, -0.13878299295902252, 0.0048859999515116215, 0.007329999934881926, 0.0, 0.11931634694337845, -0.12160030007362366, -0.4314405918121338, 10.072349548339844, -0.26153847575187683, -0.006768226623535156, 1.0, 0.00011189175711479038, -8.01629648776725e-05, -0.00011192419333383441, 1.0, -1.2477394193410873e-05, 8.016017818590626e-05, 1.2484961189329624e-05, 1.0, 0.0
551126, 3.430000066757202, 99.94400024414062, 5.192424774169922, 8.446662902832031, -0.17228299379348755, 0.0048859999515116215, 0.007329999934881926, 0.0, 0.16142576932907104, 0.12004262208938599, -0.029883652925491333, 9.674175262451172, 0.3582051396369934, 9.5367431640625e-07, 1.0, 0.00011432055907789618, -2.067296372842975e-05, -0.00011435956548666582, 1.0, -0.00010373308032285422, 2.0659936126321554e-05, 0.00010373418626841158, 1.0, 0.0
551136, 3.440000057220459, 99.9489974975586, 5.19720983505249, 8.432306289672852, -0.19142499566078186, 0.0024429999757558107, 0.0048859999515116215, 0.0, 0.11511174589395523, -0.14985185861587524, -0.472995787858963, 10.110518455505371, 0.21785873174667358, 0.0033826828002929688, 1.0, 0.00011675529094645754, 1.4379609638126567e-05, -0.00011679204180836678, 1.0, -0.00017055612988770008, -1.4400529835256748e-05, 0.00017055327771231532, 1.0, 0.0
551146, 3.430000066757202, 99.94400024414062, 5.211566925048828, 8.417948722839355, -0.19621099531650543, -0.0024429999757558107, 0.0048859999515116215, 0.0, 0.15782977640628815, 0.09644368290901184, -0.06650620698928833, 9.704028129577637, -0.23879657685756683, -0.0067691802978515625, 1.0, 0.00011919165990548208, 4.943772728438489e-05, -0.00011922217527171597, 1.0, -0.00018851924687623978, -4.946115950588137e-05, 0.0001885122765088454, 1.0, 0.0
551156, 3.430000066757202, 99.94599914550781, 5.225924015045166, 8.413164138793945, -0.1818539947271347, -0.0048859999515116215, 0.0024429999757558107, 0.0, 0.16061699390411377, 0.10614021122455597, -0.043177779763936996, 9.687467575073242, 0.2223479151725769, -9.5367431640625e-07, 1.0, 0.00012162745406385511, 6.006871262798086e-05, -0.00012165628868388012, 1.0, -0.00018204955267719924, -6.0091831983299926e-05, 0.00018204118532594293, 1.0, 0.0
551166, 3.430000066757202, 99.94100189208984, 5.216352939605713, 8.413164138793945, -0.19142499566078186, -0.007329999934881926, -0.0024429999757558107, 0.0, 0.2429819107055664, 0.5670490860939026, 0.6973322033882141, 8.940191268920898, 0.009177863597869873, 0.006768226623535156, 1.0, 0.00012406171299517155, 2.1842686692252755e-05, -0.00012409935879986733, 1.0, -0.00015113393601495773, -2.1862491848878562e-05, 0.0001511300797574222, 1.0, 0.0
551176, 3.440000057220459, 99.94999694824219, 5.154139041900635, 8.475377082824707, -0.1627109944820404, -0.012217000126838684, -0.0048859999515116215, 0.0, 0.16811758279800415, 0.1168578565120697, -0.042964160442352295, 9.680486679077148, 0.40863627195358276, -0.006766319274902344, 1.0, 0.0001264960883418098, -4.080720100319013e-05, -0.00012654495367314667, 1.0, -7.134519546525553e-05, 4.0796923713060096e-05, 7.134905899874866e-05, 1.0, 0.0
551186, 3.440000057220459, 99.9489974975586, 5.163711071014404, 8.47059154510498, -0.11964099854230881, -0.00977300014346838, -0.0024429999757558107, 0.0, 0.12044607102870941, -0.16068564355373383, -0.48842471837997437, 10.129331588745117, -0.4049372673034668, -9.5367431640625e-07, 1.0, 0.00012893446546513587, -7.902998186182231e-05, -0.00012898379645776004, 1.0, -1.599938696017489e-05, 7.902653305791318e-05, 1.600819086888805e-05, 1.0, 0.0
551196, 3.440000057220459, 99.9489974975586, 5.192424774169922, 8.437091827392578, -0.08614099770784378, -0.007329999934881926, 0.0, 0.0, 0.08001860976219177, -0.38570520281791687, -0.8481684923171997, 10.485692024230957, -0.24545589089393616, 0.0033845901489257812, 1.0, 0.0001313730317633599, -9.282577957492322e-05, -0.00013142013631295413, 1.0, 1.4913359336787835e-05, 9.28262816159986e-05, -1.4902583643561229e-05, 1.0, 0.0
551206, 3.440000057220459, 99.94400024414062, 5.221138000488281, 8.408377647399902, -0.062212999910116196, -0.0048859999515116215, 0.0024429999757558107, 0.0, 0.12781476974487305, -0.10085815191268921, -0.3731764853000641, 10.010699272155762, -0.19498667120933533, -0.003383636474609375, 1.0, 0.00013380974996834993, -8.21947178337723e-05, -0.0001338564179604873, 1.0, 2.138293166353833e-05, 8.219610754167661e-05, -2.1373325580498204e-05, 1.0, 0.0
551216, 3.430000066757202, 99.94200134277344, 5.19720983505249, 8.427520751953125, -0.08135499805212021, 0.0, 0.0024429999757558107, 0.0, 0.19793611764907837, 0.2991178333759308, 0.27728089690208435, 9.356858253479004, 0.25981834530830383, -9.5367431640625e-07, 1.0, 0.00013624239363707602, -7.15701753506437e-05, -0.00013629277236759663, 1.0, -2.100752135447692e-05, 7.156594801926985e-05, 2.1015905076637864e-05, 1.0, 0.0
551226, 3.430000066757202, 99.94100189208984, 5.173282146453857, 8.4562349319458, -0.13878299295902252, 0.0024429999757558107, 0.0048859999515116215, 0.0, 0.274434357881546, 0.7189021110534668, 0.9558300971984863, 8.681692123413086, 0.35758745670318604, -0.003383636474609375, 1.0, 0.00013867372763343155, -3.651906445156783e-05, -0.00013872815179638565, 1.0, -8.783133671386167e-05, 3.6505683965515345e-05, 8.783511293586344e-05, 1.0, 0.0
551236, 3.430000066757202, 99.94300079345703, 5.163711071014404, 8.461019515991211, -0.1818539947271347, 0.0024429999757558107, 0.0048859999515116215, 0.0, 0.306458443403244, 0.8691069483757019, 1.180308222770691, 8.453831672668457, 0.36937135457992554, 0.003383636474609375, 1.0, 0.00014110740448813885, -1.468117261538282e-06, -0.0001411611883668229, 1.0, -0.00015465522301383317, 1.4452562027145177e-06, 0.00015465423348359764, 1.0, 0.0
551246, 3.430000066757202, 99.94300079345703, 5.230710029602051, 8.39880657196045, -0.19142499566078186, -0.0048859999515116215, 0.0024429999757558107, 0.0, 0.3333228826522827, 0.9836937189102173, 1.3500221967697144, 8.287501335144043, 0.1245788037776947, -0.0033826828002929688, 1.0, 0.00014354354061651975, 9.16300905373646e-06, -0.00014359566557686776, 1.0, -0.0001481857616454363, -9.185333510686178e-06, 0.000148183258716017, 1.0, 0.0
551256, 3.4200000762939453, 99.94200134277344, 5.235495090484619, 8.403592109680176, -0.17228299379348755, -0.007329999934881926, 0.0, 0.0, 0.3713112473487854, 1.1565463542938232, 1.61461341381073, 8.029677391052246, 0.09104147553443909, 0.003383636474609375, 1.0, 0.00014597938570659608, -4.632339368981775e-06, -0.00014603383897338063, 1.0, -0.00011727280798368156, 4.614091267285403e-06, 0.0001172722622868605, 1.0, 0.0
551266, 3.440000057220459, 99.9540023803711, 5.192424774169922, 8.437091827392578, -0.15313999354839325, -0.00977300014346838, -0.0024429999757558107, 0.0, 0.21232880651950836, 0.20451998710632324, 0.040284037590026855, 9.59723949432373, 0.1411476731300354, 0.00676727294921875, 1.0, 0.00014841576921753585, -4.2854044295381755e-05, -0.00014847444253973663, 1.0, -6.192625733092427e-05, 4.284358874429017e-05, 6.193130684550852e-05, 1.0, 0.0
551276, 3.430000066757202, 99.94400024414062, 5.1589250564575195, 8.475377082824707, -0.13878299295902252, -0.00977300014346838, -0.0024429999757558107, 0.0, 0.23856289684772491, 0.3421628475189209, 0.26579296588897705, 9.375113487243652, -0.8575668334960938, -0.00676727294921875, 1.0, 0.00015085426275618374, -8.107561734504998e-05, -0.00015091293607838452, 1.0, -6.579612090718001e-06, 8.107322355499491e-05, 6.590438715647906e-06, 1.0, 0.0
551286, 3.430000066757202, 99.94499969482422, 5.149353981018066, 8.47059154510498, -0.11964099854230881, -0.007329999934881926, 0.0, 0.0, 0.24358999729156494, 0.35385504364967346, 0.27059823274612427, 9.360157012939453, 0.12156148254871368, 0.0033826828002929688, 1.0, 0.0001532928872620687, -9.487073839409277e-05, -0.00015334914496634156, 1.0, 2.433343615848571e-05, 9.487299394095317e-05, -2.4320332158822566e-05, 1.0, 0.0
551296, 3.430000066757202, 99.94499969482422, 5.178068161010742, 8.441878318786621, -0.09571199864149094, -0.0048859999515116215, 0.0024429999757558107, 0.0024429999757558107, 0.247710719704628, 0.35978755354881287, 0.2758239209651947, 9.354931831359863, 0.008002176880836487, -0.010151863098144531, 1.0, 0.0001312996173510328, -8.423953113378957e-05, -0.00013135552580934018, 1.0, 3.080277383560315e-05, 8.424224506597966e-05, -3.079338785028085e-05, 1.0, 0.0
551306, 3.430000066757202, 99.9520034790039, 5.211566925048828, 8.417948722839355, -0.09571199864149094, -0.0024429999757558107, 0.0024429999757558107, 0.0, 0.1383623629808426, -0.2784063220024109, -0.7555326223373413, 10.393056869506836, 0.0028579235076904297, 9.5367431640625e-07, 1.0, 0.0001337342255283147, -7.361167808994651e-05, -0.0001337919820798561, 1.0, 1.2842347132391296e-05, 7.361210737144575e-05, -1.2834154404117726e-05, 1.0, 0.0
551316, 3.430000066757202, 99.9469985961914, 5.192424774169922, 8.437091827392578, -0.16749699413776398, 0.0, 0.0048859999515116215, 0.0, 0.12489387392997742, -0.3463723659515381, -0.8533577919006348, 10.490880966186523, -0.5677286386489868, 0.006768226623535156, 1.0, 0.0001361672329949215, -3.855713293887675e-05, -0.00013622855476569384, 1.0, -2.9551372790592723e-05, 3.855192335322499e-05, 2.9555056244134903e-05, 1.0, 0.0
551326, 3.4200000762939453, 99.94499969482422, 5.168496131896973, 8.4562349319458, -0.19142499566078186, -0.0024429999757558107, 0.0024429999757558107, 0.0, 0.14697730541229248, -0.20970545709133148, -0.6215071678161621, 10.255645751953125, -0.05350928008556366, -9.5367431640625e-07, 1.0, 0.0001386026560794562, -2.7929365387535654e-05, -0.00013866435620002449, 1.0, -4.751185042550787e-05, 2.7921636501559988e-05, 4.751417873194441e-05, 1.0, 0.0
551336, 3.430000066757202, 99.94499969482422, 5.187639236450195, 8.432306289672852, -0.19142499566078186, -0.0024429999757558107, 0.0024429999757558107, 0.0, 0.16577085852622986, -0.09720774739980698, -0.4325467348098755, 10.063302993774414, 0.12861251831054688, -0.0033845901489257812, 1.0, 0.0001410382828908041, -1.7301641491940245e-05, -0.00014109996845945716, 1.0, -6.547235534526408e-05, 1.7291305994149297e-05, 6.547327939188108e-05, 1.0, 0.0
551346, 3.440000057220459, 99.94599914550781, 5.216352939605713, 8.413164138793945, -0.1627109944820404, -0.0048859999515116215, 0.0, 0.0, 0.16541218757629395, -0.09792998433113098, -0.4201641082763672, 10.057686805725098, 0.10515081882476807, -0.0033826828002929688, 1.0, 0.0001434745208825916, -3.110051329713315e-05, -0.00014353699225466698, 1.0, -5.899943789700046e-05, 3.109093086095527e-05, 5.900235555600375e-05, 1.0, 0.0
551356, 3.430000066757202, 99.94300079345703, 5.216352939605713, 8.413164138793945, -0.13878299295902252, -0.007329999934881926, 0.0, 0.0, 0.2125300019979477, 0.17089787125587463, 0.021957874298095703, 9.615564346313477, 0.0031915903091430664, 0.006766319274902344, 1.0, 0.00014591160288546234, -4.4895863538840786e-05, -0.00014597392873838544, 1.0, -2.808649151120335e-05, 4.489057027967647e-05, 2.8091464628232643e-05, 1.0, 0.0
551366, 3.430000066757202, 99.94599914550781, 5.19720983505249, 8.441878318786621, -0.12442599982023239, -0.007329999934881926, 0.0, 0.0, 0.2050335556268692, 0.11887821555137634, -0.05608444660902023, 9.700374603271484, 0.24183812737464905, 0.0, 1.0, 0.0001483491068938747, -5.869114102097228e-05, -0.00014841044321656227, 1.0, 2.8264912543818355e-06, 5.8690286095952615e-05, -2.8193935577291995e-06, 1.0, 0.0
551376, 3.430000066757202, 99.94100189208984, 5.163711071014404, 8.465806007385254, -0.11964099854230881, -0.0048859999515116215, 0.0, 0.0, 0.2786625027656555, 0.5293696522712708, 0.6029926538467407, 9.034531593322754, -0.04627133905887604, 0.006768226623535156, 1.0, 0.0001507856068201363, -7.248996553244069e-05, -0.00015084652113728225, 1.0, 9.299508747062646e-06, 7.249008194776252e-05, -9.290219168178737e-06, 1.0, 0.0
551386, 3.440000057220459, 99.94599914550781, 5.211566925048828, 8.427520751953125, -0.13878299295902252, 0.0, 0.0024429999757558107, 0.0, 0.2609025239944458, 0.4044184386730194, 0.39744114875793457, 9.24685001373291, 0.36409294605255127, -0.006766319274902344, 1.0, 0.0001532186579424888, -6.186614336911589e-05, -0.00015328274457715452, 1.0, -3.309112798888236e-05, 6.18598933215253e-05, 3.309898602310568e-05, 1.0, 0.0
551396, 3.430000066757202, 99.94499969482422, 5.211566925048828, 8.408377647399902, -0.1627109944820404, -0.0024429999757558107, 0.0024429999757558107, 0.0, 0.26198869943618774, 0.391495943069458, 0.35698026418685913, 9.273775100708008, -0.11601760983467102, 0.00676727294921875, 1.0, 0.0001556536735733971, -5.1238683226983994e-05, -0.0001557185169076547, 1.0, -5.1051785703748465e-05, 5.1229599193902686e-05, 5.1058166718576103e-05, 1.0, 0.0
551406, 3.430000066757202, 99.9489974975586, 5.192424774169922, 8.432306289672852, -0.16749699413776398, -0.0024429999757558107, 0.0024429999757558107, 0.0, 0.19785575568675995, 0.008850455284118652, -0.2651512622833252, 9.899290084838867, -0.014966577291488647, -0.013536453247070312, 1.0, 0.00015808887837920338, -4.0611266740597785e-05, -0.00015815410006325692, 1.0, -6.901247252244502e-05, 4.059926141053438e-05, 6.901731831021607e-05, 1.0, 0.0
551416, 3.430000066757202, 99.94599914550781, 5.178068161010742, 8.441878318786621, -0.16749699413776398, -0.0048859999515116215, 0.0, 0.0, 0.19196945428848267, -0.027627713978290558, -0.3232027292251587, 9.953956604003906, -0.3420933783054352, 0.003383636474609375, 1.0, 0.00016052526189014316, -5.4410029406426474e-05, -0.00016059116751421243, 1.0, -6.253932224353775e-05, 5.439887900138274e-05, 6.254645268199965e-05, 1.0, 0.0
551426, 3.430000066757202, 99.94599914550781, 5.178068161010742, 8.441878318786621, -0.16749699413776398, -0.0048859999515116215, 0.0024429999757558107, 0.0, 0.18695981800556183, -0.05762581527233124, -0.366544634103775, 9.997299194335938, -0.029962241649627686, -0.0033845901489257812, 1.0, 0.0001629617327125743, -4.377877849037759e-05, -0.0001630266197025776, 1.0, -5.6070060963975266e-05, 4.376851211418398e-05, 5.6075616157613695e-05, 1.0, 0.0
551436, 3.440000057220459, 99.94499969482422, 5.211566925048828, 8.422735214233398, -0.13399800658226013, -0.0048859999515116215, 0.0024429999757558107, 0.0, 0.19902653992176056, 0.010550878942012787, -0.24038423597812653, 9.881291389465332, -0.023708269000053406, 9.5367431640625e-07, 1.0, 0.0001653981307754293, -3.314750938443467e-05, -0.0001654621446505189, 1.0, -4.960082515026443e-05, 3.3138159778900445e-05, 4.9604754167376086e-05, 1.0, 0.0
551446, 3.440000057220459, 99.94300079345703, 5.216352939605713, 8.422735214233398, -0.11485499888658524, -0.0024429999757558107, 0.0024429999757558107, 0.0, 0.24033233523368835, 0.24199184775352478, 0.14156050980091095, 9.502731323242188, 0.06363476812839508, 0.010152816772460938, 1.0, 0.0001678336557233706, -2.25202675210312e-05, -0.00016789774235803634, 1.0, -6.756161747034639e-05, 2.2507825633510947e-05, 6.756386574124917e-05, 1.0, 0.0
551456, 3.440000057220459, 99.94599914550781, 5.1828532218933105, 8.441878318786621, -0.15792599320411682, -0.0024429999757558107, 0.0024429999757558107, 0.0, 0.2278783768415451, 0.1589706689119339, -0.004994645714759827, 9.63913345336914, 0.20712997019290924, 0.0033845901489257812, 1.0, 0.00017026936984620988, -1.1893068403878715e-05, -0.00017033315089065582, 1.0, -8.552243525628e-05, 1.1877448741870467e-05, 8.552295184927061e-05, 1.0, 0.0
551466, 3.430000066757202, 99.94300079345703, 5.178068161010742, 8.446662902832031, -0.17228299379348755, -0.0048859999515116215, 0.0024429999757558107, 0.0, 0.2646418809890747, 0.3585035800933838, 0.31819379329681396, 9.31594467163086, -0.0747905820608139, -0.010152816772460938, 1.0, 0.0001727055641822517, -1.2617538232007064e-06, -0.00017276837024837732, 1.0, -7.905327947810292e-05, 1.2470272849895991e-06, 7.905201346147805e-05, 1.0, 0.0
551476, 3.4200000762939453, 99.94499969482422, 5.192424774169922, 8.432306289672852, -0.1627109944820404, -0.0048859999515116215, 0.0024429999757558107, 0.0, 0.2646130919456482, 0.34108978509902954, 0.28484365344047546, 9.349295616149902, 0.17678217589855194, 0.0, 1.0, 0.0001751417003106326, 9.369577128381934e-06, -0.00017520364781375974, 1.0, -7.258414552779868e-05, -9.383378710481338e-06, 7.258104596985504e-05, 1.0, 0.0
551486, 3.440000057220459, 99.95099639892578, 5.201995849609375, 8.427520751953125, -0.13878299295902252, -0.0048859999515116215, 0.0, 0.0, 0.16807390749454498, -0.22327440977096558, -0.6303786039352417, 10.267903327941895, -0.018242835998535156, 9.5367431640625e-07, 1.0, 0.00017757776367943734, -4.429075488587841e-06, -0.00017764077347237617, 1.0, -6.611076241824776e-05, 4.416230694914702e-06, 6.611005665035918e-05, 1.0, 0.0
551496, 3.430000066757202, 99.94200134277344, 5.201995849609375, 8.422735214233398, -0.12921200692653656, -0.0048859999515116215, 0.0, 0.0, 0.22919407486915588, 0.13007453083992004, -0.05126219987869263, 9.685401916503906, -0.502413272857666, 0.0033855438232421875, 1.0, 0.00018001391435973346, -1.8227712644147687e-05, -0.00018007781181950122, 1.0, -5.9637342928908765e-05, 1.821585465222597e-05, 5.9639096434693784e-05, 1.0, 0.0
551506, 3.430000066757202, 99.94300079345703, 5.19720983505249, 8.441878318786621, -0.1435689926147461, -0.0048859999515116215, 0.0, 0.0, 0.2654624879360199, 0.3279882073402405, 0.27987655997276306, 9.36441421508789, 0.31856536865234375, -0.0033855438232421875, 1.0, 0.00018245015235152096, -3.2026335247792304e-05, -0.0001825147628551349, 1.0, -5.31638870597817e-05, 3.201549407094717e-05, 5.3168172598816454e-05, 1.0, 0.0
551516, 3.430000066757202, 99.9469985961914, 5.178068161010742, 8.441878318786621, -0.16749699413776398, -0.0048859999515116215, 0.0, 0.0, 0.23160399496555328, 0.11997872591018677, -0.07458871603012085, 9.705343246459961, 0.1757577359676361, 0.010150909423828125, 1.0, 0.00018488647765479982, -4.582494148053229e-05, -0.000184951612027362, 1.0, -4.669039844884537e-05, 4.58151480415836e-05, 4.669728150474839e-05, 1.0, 0.0
551526, 3.430000066757202, 99.94400024414062, 5.19720983505249, 8.432306289672852, -0.15792599320411682, -0.0048859999515116215, 0.0, 0.0, 0.2533211410045624, 0.23567256331443787, 0.12051409482955933, 9.517008781433105, -0.18672513961791992, -0.013536453247070312, 1.0, 0.00018732289026957005, -5.9623533161357045e-05, -0.0001873883738880977, 1.0, -4.021687709609978e-05, 5.961482020211406e-05, 4.0226426790468395e-05, 1.0, 0.0
551536, 3.430000066757202, 99.9469985961914, 5.201995849609375, 8.427520751953125, -0.14835500717163086, -0.007329999934881926, 0.0, 0.0, 0.22113251686096191, 0.040828004479408264, -0.19695118069648743, 9.83447551727295, 0.10313744843006134, 0.006768226623535156, 1.0, 0.00018976085993926972, -7.341752643696964e-05, -0.00018982504843734205, 1.0, -9.303323167841882e-06, 7.341450691455975e-05, 9.315604984294623e-06, 1.0, 0.0
551546, 3.430000066757202, 99.947998046875, 5.19720983505249, 8.432306289672852, -0.13399800658226013, -0.007329999934881926, 0.0, 0.0, 0.17745330929756165, -0.21124468743801117, -0.60194993019104, 10.239472389221191, -0.17365264892578125, 1.9073486328125e-06, 1.0, 0.000192199251614511, -8.721144695300609e-05, -0.00019226130098104477, 1.0, 2.161026350222528e-05, 8.721427002456039e-05, -2.1595184080069885e-05, 1.0, 0.0
551556, 3.430000066757202, 99.94499969482422, 5.192424774169922, 8.437091827392578, -0.13399800658226013, -0.007329999934881926, 0.0, 0.0, 0.19017155468463898, -0.1329418122768402, -0.4654041528701782, 10.102927207946777, -0.221530944108963, -1.9073486328125e-06, 1.0, 0.00019463806529529393, -0.0001010052947094664, -0.00019469713151920587, 1.0, 5.2523882914101705e-05, 0.00010101410589413717, -5.250593676464632e-05, 1.0, 0.0
551566, 3.440000057220459, 99.94599914550781, 5.1828532218933105, 8.446662902832031, -0.12921200692653656, -0.0048859999515116215, 0.0024429999757558107, 0.0024429999757558107, 0.1846703439950943, -0.16113512217998505, -0.5035226941108704, 10.141044616699219, 0.07468923926353455, 9.5367431640625e-07, 1.0, 0.00017264483904000372, -9.037382551468909e-05, -0.00017270380340050906, 1.0, 5.8992780395783484e-05, 9.038273856276646e-05, -5.897912706132047e-05, 1.0, 0.0
551576, 3.430000066757202, 99.94599914550781, 5.178068161010742, 8.441878318786621, -0.12442599982023239, -0.0024429999757558107, 0.0024429999757558107, 0.0, 0.18003633618354797, -0.18317843973636627, -0.537611186504364, 10.168368339538574, -0.020850107073783875, -9.5367431640625e-07, 1.0, 0.0001750793308019638, -7.974671461852267e-05, -0.00017514055070932955, 1.0, 4.103191531612538e-05, 7.975267362780869e-05, -4.101987724425271e-05, 1.0, 0.0
551586, 3.440000057220459, 99.94999694824219, 5.216352939605713, 8.413164138793945, -0.15313999354839325, -0.0048859999515116215, 0.0024429999757558107, 0.0, 0.11163715273141861, -0.5661154389381409, -1.142454981803894, 10.779977798461914, -0.015065059065818787, -0.0067653656005859375, 1.0, 0.00017751596169546247, -6.91153691150248e-05, -0.00017757710884325206, 1.0, 4.750102380057797e-05, 6.912256503710523e-05, -4.749065192299895e-05, 1.0, 0.0
551596, 3.440000057220459, 99.9489974975586, 5.206780910491943, 8.422735214233398, -0.17706799507141113, -0.007329999934881926, 0.0, 0.0, 0.069688580930233, -0.7831161022186279, -1.4753484725952148, 11.112871170043945, -0.3344276547431946, 0.006766319274902344, 1.0, 0.0001799542224034667, -8.29096679808572e-05, -0.00018001257558353245, 1.0, 7.841444312362e-05, 8.292246639030054e-05, -7.840145553927869e-05, 1.0, 0.0
551606, 3.430000066757202, 99.947998046875, 5.187639236450195, 8.446662902832031, -0.19142499566078186, -0.007329999934881926, -0.0024429999757558107, 0.0, 0.049490660429000854, -0.8676218390464783, -1.585024356842041, 11.225931167602539, -0.18209075927734375, 0.0, 1.0, 0.00018239290511701256, -0.00012113388947909698, -0.00018244569946546108, 1.0, 0.00010933229350484908, 0.00012115243589505553, -0.00010931221913779154, 1.0, 0.0
551616, 3.430000066757202, 99.9469985961914, 5.168496131896973, 8.451449394226074, -0.16749699413776398, -0.00977300014346838, -0.0024429999757558107, 0.0, 0.04895180091261864, -0.8368498086929321, -1.5193520784378052, 11.150107383728027, -0.06178365275263786, 0.0033845901489257812, 1.0, 0.0001848357351263985, -0.00015935357077978551, -0.0001848776446422562, 1.0, 0.0001646802411414683, 0.00015938248543534428, -0.00016465288354083896, 1.0, 0.0
551626, 3.440000057220459, 99.95099639892578, 5.1828532218933105, 8.446662902832031, -0.12442599982023239, -0.00977300014346838, -0.0024429999757558107, 0.0, -0.014185544103384018, -1.1623790264129639, -2.015336751937866, 11.652857780456543, 0.041296057403087616, -0.010151863098144531, 1.0, 0.00018728067516349256, -0.0001975731283891946, -0.00018730746523942798, 1.0, 0.00022002827608957887, 0.0001976126804947853, -0.0002199934679083526, 1.0, 0.0
551636, 3.440000057220459, 99.9520034790039, 5.19720983505249, 8.432306289672852, -0.09092699736356735, -0.007329999934881926, 0.0, 0.0, -0.08370963484048843, -1.510495662689209, -2.546412229537964, 12.183935165405273, -0.27488234639167786, 0.006766319274902344, 1.0, 0.00018972290854435414, -0.0002113671216648072, -0.00018974054546561092, 1.0, 0.0002509418409317732, 0.00021141300385352224, -0.0002509039477445185, 1.0, 0.0
551646, 3.4200000762939453, 99.9489974975586, 5.211566925048828, 8.427520751953125, -0.08135499805212021, -0.0024429999757558107, 0.0, 0.0, -0.09441139549016953, -1.5102529525756836, -2.498234987258911, 12.142525672912598, -0.2904961407184601, 1.9073486328125e-06, 1.0, 0.0001921552320709452, -0.00022517031175084412, -0.00019217320368625224, 1.0, 0.00023298543237615377, 0.00022521339997183532, -0.00023294439597520977, 1.0, 0.0
551656, 3.430000066757202, 99.94400024414062, 5.19720983505249, 8.432306289672852, -0.16749699413776398, -0.0024429999757558107, 0.0024429999757558107, -0.0024429999757558107, -0.020983248949050903, -1.032190203666687, -1.690194010734558, 11.327716827392578, 0.02277003973722458, 0.006768226623535156, 1.0, 0.0002190172963310033, -0.00021454354282468557, -0.00021904178720433265, 1.0, 0.00021502436720766127, 0.00021458943956531584, -0.00021497931447811425, 1.0, 0.0
551666, 3.440000057220459, 99.94400024414062, 5.187639236450195, 8.441878318786621, -0.2057819962501526, -0.0024429999757558107, 0.0024429999757558107, 0.0, 0.04169681295752525, -0.6343885660171509, -1.01865553855896, 10.656179428100586, 0.44557633996009827, -0.006768226623535156, 1.0, 0.00022144956164993346, -0.0002039172686636448, -0.00022148019343148917, 1.0, 0.0001970630110008642, 0.0002039597457041964, -0.0001970197627088055, 1.0, 0.0
551676, 3.4200000762939453, 99.94400024414062, 5.187639236450195, 8.432306289672852, -0.21535399556159973, -0.0048859999515116215, 0.0, 0.0, 0.0951189398765564, -0.30516475439071655, -0.4755914807319641, 10.10634708404541, 0.36732715368270874, 9.5367431640625e-07, 1.0, 0.0002238870074506849, -0.0002177156275138259, -0.00022391359379980713, 1.0, 0.0002035370416706428, 0.0002177600108552724, -0.00020349024271126837, 1.0, 0.0
551686, 3.440000057220459, 99.9520034790039, 5.19720983505249, 8.432306289672852, -0.16749699413776398, -0.00977300014346838, -0.0024429999757558107, 0.0, 0.010774940252304077, -0.771050751209259, -1.2157596349716187, 10.85328197479248, 0.30063551664352417, -0.006768226623535156, 1.0, 0.00022633517801295966, -0.0002559330314397812, -0.00022634193010162562, 1.0, 0.0002588865754660219, 0.0002559902786742896, -0.00025883069611154497, 1.0, 0.0
551696, 3.430000066757202, 99.94599914550781, 5.201995849609375, 8.432306289672852, -0.11964099854230881, -0.00977300014346838, -0.0024429999757558107, 0.0, 0.03582647815346718, -0.5969666838645935, -0.9109004735946655, 10.551806449890137, -0.40844976902008057, 0.00676727294921875, 1.0, 0.00022878545860294253, -0.0002941502898465842, -0.000228768156375736, 1.0, 0.0003142362111248076, 0.00029422069201245904, -0.00031417104764841497, 1.0, 0.0
551706, 3.430000066757202, 99.93800354003906, 5.19720983505249, 8.441878318786621, -0.09092699736356735, -0.007329999934881926, -0.0024429999757558107, 0.0, 0.1847643256187439, 0.2731512188911438, 0.5161240100860596, 9.128166198730469, 0.16496510803699493, 0.003383636474609375, 1.0, 0.00023123067512642592, -0.0003323729906696826, -0.00023119225807022303, 1.0, 0.0003451559168752283, 0.0003324512217659503, -0.0003450812946539372, 1.0, 0.0
551716, 3.440000057220459, 99.94599914550781, 5.178068161010742, 8.446662902832031, -0.08614099770784378, -0.0048859999515116215, 0.0, 0.0, 0.18363124132156372, 0.2562376856803894, 0.4705556631088257, 9.16358470916748, 0.7787824869155884, 0.0033845901489257812, 1.0, 0.0002336689503863454, -0.0003461712913122028, -0.00023362362117040902, 1.0, 0.0003516300639603287, 0.00034625185071490705, -0.00035155145451426506, 1.0, 0.0
551726, 3.430000066757202, 99.94000244140625, 5.1828532218933105, 8.437091827392578, -0.1435689926147461, 0.0, 0.0048859999515116215, 0.0024429999757558107, 0.27740713953971863, 0.7783690094947815, 1.3051578998565674, 8.325597763061523, -0.01955290138721466, -0.010149955749511719, 1.0, 0.0002116604009643197, -0.00031112099532037973, -0.00021164206555113196, 1.0, 0.0003092328552156687, 0.00031118388869799674, -0.00030917004914954305, 1.0, 0.0
551736, 3.430000066757202, 99.947998046875, 5.201995849609375, 8.417948722839355, -0.17706799507141113, 0.0024429999757558107, 0.0048859999515116215, 0.0, 0.2284991592168808, 0.4693732261657715, 0.7836594581604004, 8.847095489501953, 0.45831412076950073, -0.0033845901489257812, 1.0, 0.00021407572785392404, -0.0002760749193839729, -0.00021408902830444276, 1.0, 0.00024240640050265938, 0.0002761244249995798, -0.00024235025921370834, 1.0, 0.0
551746, 3.430000066757202, 99.94499969482422, 5.201995849609375, 8.422735214233398, -0.19142499566078186, -0.0048859999515116215, 0.0024429999757558107, 0.0, 0.2365683615207672, 0.49614039063453674, 0.8175894021987915, 8.816550254821777, -0.2852560877799988, -9.5367431640625e-07, 1.0, 0.0002165136393159628, -0.0002654433192219585, -0.00021652772556990385, 1.0, 0.00024887509061954916, 0.0002654948038980365, -0.00024882055004127324, 1.0, 0.0
551756, 3.430000066757202, 99.94499969482422, 5.201995849609375, 8.427520751953125, -0.18663999438285828, -0.007329999934881926, 0.0, 0.0, 0.24324780702590942, 0.5138328075408936, 0.8362741470336914, 8.801249504089355, 0.016767919063568115, 0.0033845901489257812, 1.0, 0.00021895796817261726, -0.00027923641027882695, -0.00021896041289437562, 1.0, 0.0002797890338115394, 0.00027929520001634955, -0.00027973088435828686, 1.0, 0.0
551766, 3.430000066757202, 99.94400024414062, 5.178068161010742, 8.441878318786621, -0.1627109944820404, -0.007329999934881926, -0.0024429999757558107, 0.0, 0.2658395767211914, 0.6209917664527893, 0.9897080063819885, 8.641048431396484, 0.008429363369941711, 0.003383636474609375, 1.0, 0.00022140271903481334, -0.0003174594312440604, -0.00022138583881314844, 1.0, 0.00031070836121216416, 0.00031752564245834947, -0.00031064118957147, 1.0, 0.0
551776, 3.430000066757202, 99.94599914550781, 5.178068161010742, 8.451449394226074, -0.12921200692653656, -0.00977300014346838, 0.0, 0.0, 0.2513803541660309, 0.5133283138275146, 0.8058896660804749, 8.831634521484375, 0.08750955760478973, -0.00676727294921875, 1.0, 0.00022385640477295965, -0.0003312469634693116, -0.00022381766757462174, 1.0, 0.0003660523798316717, 0.0003313261840958148, -0.0003659813664853573, 1.0, 0.0
551786, 3.430000066757202, 99.94200134277344, 5.178068161010742, 8.446662902832031, -0.10049799829721451, -0.007329999934881926, 0.0, 0.0, 0.30188310146331787, 0.7785918116569519, 1.2191107273101807, 8.41502857208252, -0.10413020849227905, 0.006768226623535156, 1.0, 0.00022630277089774609, -0.0003450398216955364, -0.00022624873963650316, 1.0, 0.0003969664394389838, 0.00034512687125243247, -0.00039689152617938817, 1.0, 0.0
551796, 3.440000057220459, 99.947998046875, 5.192424774169922, 8.437091827392578, -0.11485499888658524, -0.0024429999757558107, 0.0024429999757558107, 0.0, 0.24810349941253662, 0.4411051571369171, 0.6561460494995117, 8.981377601623535, 0.22782108187675476, -0.0033845901489257812, 1.0, 0.00022873269335832447, -0.0003344136639498174, -0.00022868908126838505, 1.0, 0.0003790050104726106, 0.0003344976285006851, -0.00037893163971602917, 1.0, 0.0
551806, 3.430000066757202, 99.94999694824219, 5.19720983505249, 8.441878318786621, -0.15313999354839325, 0.0024429999757558107, 0.0048859999515116215, 0.0, 0.17120963335037231, -0.01385587453842163, -0.08465754985809326, 9.728948593139648, -0.3097299635410309, 0.0033845901489257812, 1.0, 0.00023114646319299936, -0.0002993687230627984, -0.00023113848874345422, 1.0, 0.00031217795913107693, 0.0002994383394252509, -0.0003121118061244488, 1.0, 0.0
551816, 3.440000057220459, 99.947998046875, 5.201995849609375, 8.427520751953125, -0.18663999438285828, -0.0024429999757558107, 0.0024429999757558107, 0.0, 0.13702994585037231, -0.20783284306526184, -0.4039461314678192, 10.04146957397461, -0.40879735350608826, 0.00676727294921875, 1.0, 0.00023357721511274576, -0.0002887426526285708, -0.00023357792815659195, 1.0, 0.0002942164719570428, 0.0002888088929466903, -0.0002941520360764116, 1.0, 0.0
551826, 3.440000057220459, 99.94599914550781, 5.201995849609375, 8.422735214233398, -0.19621099531650543, -0.0048859999515116215, 0.0, 0.0, 0.14150480926036835, -0.17457395792007446, -0.346823513507843, 9.980962753295898, -0.17106683552265167, -0.00676727294921875, 1.0, 0.00023601519933436066, -0.00030254092416726053, -0.0002360099897487089, 1.0, 0.00030069067724980414, 0.0003026094054803252, -0.00030062231235206127, 1.0, 0.0
551836, 3.440000057220459, 99.947998046875, 5.201995849609375, 8.417948722839355, -0.17228299379348755, -0.007329999934881926, 0.0, 0.0, 0.11193753778934479, -0.33580726385116577, -0.605570912361145, 10.23632526397705, 0.03303731977939606, -0.0033845901489257812, 1.0, 0.00023846067779231817, -0.00031633340404368937, -0.00023844196402933449, 1.0, 0.00033160491148009896, 0.0003164099180139601, -0.0003315325593575835, 1.0, 0.0
551846, 3.4200000762939453, 99.94200134277344, 5.19720983505249, 8.432306289672852, -0.14835500717163086, -0.007329999934881926, -0.0024429999757558107, 0.0, 0.1833266317844391, 0.08243542909622192, 0.08805346488952637, 9.549468994140625, -0.1397417187690735, -0.0033845901489257812, 1.0, 0.0002409065782558173, -0.0003545558138284832, -0.00024086541088763624, 1.0, 0.0003625249955803156, 0.0003546405059751123, -0.0003624427772592753, 1.0, 0.0
551856, 3.430000066757202, 99.94599914550781, 5.192424774169922, 8.437091827392578, -0.12442599982023239, -0.007329999934881926, 0.0, 0.0, 0.18093474209308624, 0.06504164636135101, 0.05846243351697922, 9.579060554504395, 0.37582582235336304, 0.006768226623535156, 1.0, 0.00024335365742444992, -0.0003683481481857598, -0.00024329652660526335, 1.0, 0.0003934392880182713, 0.0003684411640278995, -0.0003933528787456453, 1.0, 0.0
551866, 3.430000066757202, 99.94599914550781, 5.192424774169922, 8.437091827392578, -0.11006899923086166, -0.0048859999515116215, 0.0, 0.0, 0.17887826263904572, 0.05025036633014679, 0.03356485813856125, 9.603959083557129, -0.016186624765396118, 9.5367431640625e-07, 1.0, 0.0002457921509630978, -0.0003821463615167886, -0.0002457271912135184, 1.0, 0.0003999136097263545, 0.00038224190939217806, -0.00039982295129448175, 1.0, 0.0
551876, 3.430000066757202, 99.93699645996094, 5.19720983505249, 8.432306289672852, -0.12442599982023239, -0.0024429999757558107, 0.0024429999757558107, 0.0, 0.3208971917629242, 0.8535619974136353, 1.3338384628295898, 8.30368423461914, -0.013619333505630493, 9.5367431640625e-07, 1.0, 0.00024822138948366046, -0.0003715205530170351, -0.0002481675473973155, 1.0, 0.0003819519770331681, 0.0003716126666404307, -0.0003818629775196314, 1.0, 0.0
551886, 3.440000057220459, 99.9469985961914, 5.206780910491943, 8.432306289672852, -0.15313999354839325, -0.0024429999757558107, 0.0024429999757558107, 0.0, 0.28026115894317627, 0.5875146389007568, 0.8879724144935608, 8.756317138671875, 0.7112425565719604, -9.5367431640625e-07, 1.0, 0.0002506508317310363, -0.00036089480272494256, -0.0002506077289581299, 1.0, 0.0003639903152361512, 0.00036098339478485286, -0.0003639030328486115, 1.0, 0.0
551896, 3.440000057220459, 99.9520034790039, 5.1828532218933105, 8.441878318786621, -0.1627109944820404, -0.0048859999515116215, 0.0024429999757558107, 0.0, 0.16628497838974, -0.08391201496124268, -0.2234840989112854, 9.857623100280762, -0.2474682629108429, 0.00676727294921875, 1.0, 0.0002530892670620233, -0.00035026296973228455, -0.00025304770679213107, 1.0, 0.00037045861245132983, 0.0003503540647216141, -0.0003703731345012784, 1.0, 0.0
551906, 3.430000066757202, 99.94499969482422, 5.187639236450195, 8.432306289672852, -0.1627109944820404, -0.0048859999515116215, 0.0, 0.0, 0.18226051330566406, 0.009325370192527771, -0.07215845584869385, 9.702914237976074, -0.6025869846343994, -0.010150909423828125, 1.0, 0.00025552764418534935, -0.00036406112485565245, -0.0002554786915425211, 1.0, 0.00037693307967856526, 0.00036415475187823176, -0.0003768432652577758, 1.0, 0.0
551916, 3.440000057220459, 99.94400024414062, 5.187639236450195, 8.441878318786621, -0.15792599320411682, -0.0048859999515116215, 0.0, 0.0, 0.21290917694568634, 0.18200023472309113, 0.2151745855808258, 9.422348022460938, 0.08456531167030334, -0.003383636474609375, 1.0, 0.0002579661086201668, -0.0003778592508751899, -0.0002579095889814198, 1.0, 0.00038340757600963116, 0.00037795546813867986, -0.0003833133669104427, 1.0, 0.0
551926, 3.430000066757202, 99.9530029296875, 5.192424774169922, 8.427520751953125, -0.12921200692653656, -0.0024429999757558107, 0.0, 0.0, 0.08962815999984741, -0.525750994682312, -0.9409339427947998, 10.57168960571289, 0.15358734130859375, 0.00676727294921875, 1.0, 0.0002603954344522208, -0.000391663663322106, -0.0002603403991088271, 1.0, 0.0003654521133285016, 0.00039175618439912796, -0.00036535339313559234, 1.0, 0.0
551936, 3.430000066757202, 99.94599914550781, 5.19720983505249, 8.427520751953125, -0.13399800658226013, -0.0048859999515116215, 0.0024429999757558107, 0.0, 0.10096633434295654, -0.44072699546813965, -0.7847417593002319, 10.4188814163208, -0.6288024187088013, -0.00676727294921875, 1.0, 0.00026283407351002097, -0.00038103177212178707, -0.0002627803769428283, 1.0, 0.0003719203232321888, 0.0003811268834397197, -0.0003718234074767679, 1.0, 0.0
551946, 3.440000057220459, 99.9530029296875, 5.187639236450195, 8.441878318786621, -0.1435689926147461, -0.0048859999515116215, 0.0024429999757558107, 0.0, -0.00506988912820816, -1.0250097513198853, -1.714900255203247, 11.352423667907715, 0.08364515006542206, 0.003383636474609375, 1.0, 0.00026527265436016023, -0.0003703998518176377, -0.00026522044208832085, 1.0, 0.0003783885040320456, 0.0003704975824803114, -0.0003782934509217739, 1.0, 0.0
551956, 3.430000066757202, 99.94599914550781, 5.1828532218933105, 8.446662902832031, -0.14835500717163086, -0.0024429999757558107, 0.0024429999757558107, 0.0, 0.021079985424876213, -0.8351333141326904, -1.37965989112854, 11.017183303833008, -0.5105823278427124, 0.003383636474609375, 1.0, 0.0002677020966075361, -0.0003597743925638497, -0.0002676605654414743, 1.0, 0.000360426667612046, 0.00035986831062473357, -0.000360333506250754, 1.0, 0.0
551966, 3.4200000762939453, 99.9469985961914, 5.187639236450195, 8.432306289672852, -0.14835500717163086, -0.0024429999757558107, 0.0024429999757558107, 0.0, 0.026462417095899582, -0.770611047744751, -1.2593863010406494, 10.890141487121582, 0.18337447941303253, 0.0, 1.0, 0.0002701317425817251, -0.0003491489915177226, -0.00027010051417164505, 1.0, 0.00034246480208821595, 0.00034923898056149483, -0.00034237359068356454, 1.0, 0.0
551976, 3.430000066757202, 99.94599914550781, 5.206780910491943, 8.417948722839355, -0.1627109944820404, -0.0024429999757558107, 0.0024429999757558107, 0.0, 0.04839441925287247, -0.6146765351295471, -0.9832115173339844, 10.617349624633789, 0.06937158107757568, -0.006768226623535156, 1.0, 0.00027256159228272736, -0.000338523619575426, -0.0002725402591750026, 1.0, 0.00032450290746055543, 0.00033860962139442563, -0.00032441370422020555, 1.0, 0.0
551986, 3.430000066757202, 99.94599914550781, 5.206780910491943, 8.432306289672852, -0.15313999354839325, -0.007329999934881926, 0.0, 0.0, 0.06722278892993927, -0.4825170636177063, -0.7434576153755188, 10.387747764587402, 0.14927540719509125, 0.0033826828002929688, 1.0, 0.0002750081766862422, -0.00035231499350629747, -0.0002749718842096627, 1.0, 0.000355417636455968, 0.00035241019213572145, -0.0003553238639142364, 1.0, 0.0
551996, 3.440000057220459, 99.94599914550781, 5.178068161010742, 8.451449394226074, -0.14835500717163086, -0.007329999934881926, 0.0, 0.0, 0.08337315171957016, -0.37072238326072693, -0.5569342374801636, 10.194458961486816, 0.12577025592327118, 0.010151863098144531, 1.0, 0.0002774551685433835, -0.0003661062801256776, -0.0002774030726868659, 1.0, 0.00038633239455521107, 0.00036621085018850863, -0.00038623399450443685, 1.0, 0.0
552006, 3.440000057220459, 99.94999694824219, 5.187639236450195, 8.441878318786621, -0.1435689926147461, -0.0048859999515116215, 0.0, 0.0, 0.03270382061600685, -0.6426037549972534, -0.9881794452667236, 10.625702857971191, 0.10560830682516098, -0.0067653656005859375, 1.0, 0.0002798936329782009, -0.00037990426062606275, -0.0002798338537104428, 1.0, 0.00039280718192458153, 0.00038001156644895673, -0.0003927040670532733, 1.0, 0.0
552016, 3.430000066757202, 99.947998046875, 5.19720983505249, 8.427520751953125, -0.13399800658226013, -0.0048859999515116215, 0.0, 0.0, 0.021009759977459908, -0.6820967793464661, -1.0394047498703003, 10.673543930053711, -0.23588807880878448, -9.5367431640625e-07, 1.0, 0.0002823321847245097, -0.0003937022411264479, -0.00028226454742252827, 1.0, 0.00039928199839778244, 0.0003938123118132353, -0.00039917411049827933, 1.0, 0.0
552026, 3.430000066757202, 99.9469985961914, 5.206780910491943, 8.427520751953125, -0.13399800658226013, -0.0048859999515116215, 0.0024429999757558107, 0.0, 0.027645662426948547, -0.6158396005630493, -0.9087322950363159, 10.549639701843262, -0.026228375732898712, -0.0033845901489257812, 1.0, 0.00028477085288614035, -0.0003830702044069767, -0.0002847049036063254, 1.0, 0.00040574997547082603, 0.0003831830690614879, -0.0004056441248394549, 1.0, 0.0
552036, 3.430000066757202, 99.95099639892578, 5.201995849609375, 8.437091827392578, -0.1435689926147461, -0.0048859999515116215, 0.0024429999757558107, 0.0, -0.029457617551088333, -0.9137380123138428, -1.3731353282928467, 11.017426490783691, 0.06789442896842957, 0.006768226623535156, 1.0, 0.0002872094337362796, -0.000372438138583675, -0.0002871453179977834, 1.0, 0.00041221792344003916, 0.000372553855413571, -0.0004121141682844609, 1.0, 0.0
552046, 3.430000066757202, 99.94599914550781, 5.187639236450195, 8.432306289672852, -0.15792599320411682, -0.0048859999515116215, 0.0, 0.0, 0.002449650317430496, -0.6941863298416138, -1.0084739923477173, 10.639229774475098, -0.25581681728363037, 0.003383636474609375, 1.0, 0.00028964795637875795, -0.0003862360608763993, -0.0002895757497753948, 1.0, 0.0004186928563285619, 0.00038635462988168, -0.00041858424083329737, 1.0, 0.0
552056, 3.430000066757202, 99.947998046875, 5.192424774169922, 8.441878318786621, -0.1627109944820404, -0.0048859999515116215, 0.0, 0.0024429999757558107, -0.0036387958098202944, -0.699142575263977, -0.9903451800346375, 10.63125228881836, 0.20663240551948547, -0.013535499572753906, 1.0, 0.00026765657821670175, -0.00040003398316912353, -0.0002675760770216584, 1.0, 0.0004251678183209151, 0.00040014521800912917, -0.00042506371391937137, 1.0, 0.0
552066, 3.430000066757202, 99.9489974975586, 5.201995849609375, 8.427520751953125, -0.13399800658226013, -0.0048859999515116215, 0.0, 0.0, -0.023710601031780243, -0.7829850912094116, -1.113350510597229, 10.750874519348145, 0.004542636685073376, 0.010151863098144531, 1.0, 0.00027009527548216283, -0.00041383205098100007, -0.0002700063050724566, 1.0, 0.00043164248927496374, 0.0004139460506848991, -0.0004315337282605469, 1.0, 0.0
552076, 3.430000066757202, 99.947998046875, 5.19720983505249, 8.437091827392578, -0.13399800658226013, -0.0048859999515116215, 0.0, 0.0, -0.025309491902589798, -0.7584472894668579, -1.052312970161438, 10.693220138549805, -0.06549213826656342, -0.003383636474609375, 1.0, 0.0002725340600591153, -0.00042763008968904614, -0.0002724364458117634, 1.0, 0.0004381171893328428, 0.000427746883360669, -0.00043800368439406157, 1.0, 0.0
552086, 3.4200000762939453, 99.94499969482422, 5.192424774169922, 8.441878318786621, -0.13399800658226013, -0.0024429999757558107, 0.0024429999757558107, 0.0, 0.023350831121206284, -0.4495304524898529, -0.535037636756897, 10.175945281982422, 0.031596120446920395, 0.003383636474609375, 1.0, 0.00027496248367242515, -0.00041700477595441043, -0.0002748772094491869, 1.0, 0.00042015526560135186, 0.0004171177570242435, -0.00042004359420388937, 1.0, 0.0
552096, 3.430000066757202, 99.9469985961914, 5.192424774169922, 8.437091827392578, -0.12921200692653656, -0.0024429999757558107, 0.0, 0.0, 0.03140406683087349, -0.3835267424583435, -0.4227669835090637, 10.060291290283203, 0.2829465866088867, 0.0, 1.0, 0.0002773911110125482, -0.00043080950854346156, -0.00027730752481147647, 1.0, 0.00040220003575086594, 0.00043091856059618294, -0.00040208353311754763, 1.0, 0.0
552106, 3.430000066757202, 99.9469985961914, 5.201995849609375, 8.427520751953125, -0.13878299295902252, -0.0024429999757558107, 0.0, 0.0, 0.038388170301914215, -0.32624372839927673, -0.3231615424156189, 9.960685729980469, 0.06320247054100037, -0.003383636474609375, 1.0, 0.00027981947641819715, -0.00044461427023634315, -0.00027973807300440967, 1.0, 0.00038424483500421047, 0.00044471933506429195, -0.00038412344292737544, 1.0, 0.0
552116, 3.430000066757202, 99.94999694824219, 5.201995849609375, 8.427520751953125, -0.14835500717163086, -0.0024429999757558107, 0.0024429999757558107, 0.0, -0.002964921295642853, -0.545515775680542, -0.6729999780654907, 10.310523986816406, 0.05448359251022339, 0.0, 1.0, 0.00028224760899320245, -0.00043398907291702926, -0.00028217825456522405, 1.0, 0.00036628282396122813, 0.00043409006320871413, -0.0003661633236333728, 1.0, 0.0
552126, 3.440000057220459, 99.9469985961914, 5.192424774169922, 8.437091827392578, -0.15792599320411682, -0.0048859999515116215, 0.0, 0.0, 0.009549915790557861, -0.4500904083251953, -0.5075777769088745, 10.145101547241211, -0.19135957956314087, 0.0, 1.0, 0.00028468650998547673, -0.00044778702431358397, -0.000284609297523275, 1.0, 0.00037275769864208996, 0.00044789075036533177, -0.00037263325066305697, 1.0, 0.0
552136, 3.430000066757202, 99.9489974975586, 5.1828532218933105, 8.437091827392578, -0.13878299295902252, -0.007329999934881926, 0.0, 0.0, -0.011131703853607178, -0.5468339920043945, -0.6625669002532959, 10.293322563171387, 0.09048497676849365, 0.0, 1.0, 0.0002871364704333246, -0.0004615780198946595, -0.0002870402531698346, 1.0, 0.0004036726022604853, 0.0004616914375219494, -0.00040354314842261374, 1.0, 0.0
552146, 3.430000066757202, 99.947998046875, 5.192424774169922, 8.441878318786621, -0.12921200692653656, -0.0048859999515116215, 0.0, 0.0, -0.01332369726151228, -0.5346812009811401, -0.6223344802856445, 10.2632417678833, -0.08119551092386246, -0.006768226623535156, 1.0, 0.00028957557515241206, -0.00047537594218738377, -0.0002894708013627678, 1.0, 0.00041014753514900804, 0.0004754922119900584, -0.00041001298814080656, 1.0, 0.0
552156, 3.440000057220459, 99.9489974975586, 5.192424774169922, 8.437091827392578, -0.11485499888658524, -0.0048859999515116215, 0.0024429999757558107, 0.0, -0.030136384069919586, -0.6057870388031006, -0.7306744456291199, 10.36819839477539, 0.01663317158818245, 0.010151863098144531, 1.0, 0.0002920147671829909, -0.00046474384726025164, -0.00029191127396188676, 1.0, 0.00041661542491056025, 0.0004648629983421415, -0.0004164827987551689, 1.0, 0.0
552166, 3.430000066757202, 99.9489974975586, 5.19720983505249, 8.432306289672852, -0.12442599982023239, -0.0024429999757558107, 0.0024429999757558107, 0.0, -0.04417780041694641, -0.6581863164901733, -0.8036946058273315, 10.441217422485352, -0.05747024714946747, -0.003383636474609375, 1.0, 0.00029444252140820026, -0.0004541188827715814, -0.0002943518047686666, 1.0, 0.0003986532974522561, 0.00045423381379805505, -0.00039852262125350535, 1.0, 0.0
552176, 3.440000057220459, 99.94999694824219, 5.192424774169922, 8.432306289672852, -0.1435689926147461, 0.0, 0.0024429999757558107, 0.0, -0.07178108394145966, -0.7852740287780762, -0.999751091003418, 10.633889198303223, -0.03994108736515045, -9.5367431640625e-07, 1.0, 0.0002968593908008188, -0.0004435011651366949, -0.00029679216095246375, 1.0, 0.00035626115277409554, 0.0004436045710463077, -0.0003561324847396463, 1.0, 0.0
552186, 3.430000066757202, 99.94400024414062, 5.192424774169922, 8.437091827392578, -0.15792599320411682, -0.0024429999757558107, 0.0024429999757558107, 0.0, 0.00301167368888855, -0.3260449469089508, -0.2366471290588379, 9.874170303344727, -0.10545015335083008, -0.0033845901489257812, 1.0, 0.0002992875233758241, -0.00043287628795951605, -0.00029923205147497356, 1.0, 0.00033829896710813046, 0.00043297524098306894, -0.00033817236544564366, 1.0, 0.0
552196, 3.4200000762939453, 99.94300079345703, 5.187639236450195, 8.437091827392578, -0.17228299379348755, -0.0048859999515116215, 0.0, 0.0, 0.08062213659286499, 0.13052940368652344, 0.5032503008842468, 9.130888938903809, 0.4156213104724884, 0.0033855438232421875, 1.0, 0.0003017264243680984, -0.00044667412294074893, -0.0003016635018866509, 1.0, 0.00034477407461963594, 0.0004467758408281952, -0.00034464229247532785, 1.0, 0.0
552206, 3.440000057220459, 99.9489974975586, 5.192424774169922, 8.427520751953125, -0.1435689926147461, -0.007329999934881926, 0.0, 0.0, 0.05049083009362221, -0.04295685887336731, 0.21089699864387512, 9.419858932495117, 0.4065106213092804, -0.003383636474609375, 1.0, 0.0003041763266082853, -0.00046046459465287626, -0.0003040948649868369, 1.0, 0.0003756892110686749, 0.00046057646977715194, -0.0003755521902348846, 1.0, 0.0
552216, 3.430000066757202, 99.94999694824219, 5.192424774169922, 8.437091827392578, -0.12442599982023239, -0.007329999934881926, 0.0, 0.0, 0.009020302444696426, -0.27378031611442566, -0.1597461998462677, 9.797268867492676, -0.15812447667121887, -0.003383636474609375, 1.0, 0.0003066266654059291, -0.0004742549790535122, -0.00030652579152956605, 1.0, 0.00040660437662154436, 0.0004743771569337696, -0.0004064620297867805, 1.0, 0.0
552226, 3.430000066757202, 99.9469985961914, 5.178068161010742, 8.451449394226074, -0.11485499888658524, -0.0048859999515116215, 0.0, 0.0, 0.02134770341217518, -0.18985022604465485, -0.021247923374176025, 9.658772468566895, -0.2063218057155609, 0.00676727294921875, 1.0, 0.0003090658283326775, -0.00048805278493091464, -0.00030895628151483834, 1.0, 0.0004130795714445412, 0.0004881779314018786, -0.00041293184040114284, 1.0, 0.0
552236, 3.4200000762939453, 99.9469985961914, 5.192424774169922, 8.446662902832031, -0.13399800658226013, -0.0048859999515116215, 0.0024429999757558107, 0.0, 0.03190019726753235, -0.11940785497426987, 0.09971269965171814, 9.544577598571777, 0.07575673609972, 1.9073486328125e-06, 1.0, 0.0003115051076747477, -0.0004774205735884607, -0.00031139678321778774, 1.0, 0.00041954725747928023, 0.00047754874685779214, -0.00041940162191167474, 1.0, 0.0
552246, 3.430000066757202, 99.9489974975586, 5.187639236450195, 8.432306289672852, -0.1435689926147461, -0.0024429999757558107, 0.0024429999757558107, 0.0, 0.00944477692246437, -0.2390790730714798, -0.10878637433052063, 9.739542007446289, 0.06258311122655869, 0.006766319274902344, 1.0, 0.0003139326290693134, -0.00046679595834575593, -0.00031383734312839806, 1.0, 0.00040158492629416287, 0.0004669195623137057, -0.0004014414153061807, 1.0, 0.0
552256, 3.440000057220459, 99.9469985961914, 5.19720983505249, 8.427520751953125, -0.16749699413776398, -0.0024429999757558107, 0.0024429999757558107, 0.0, 0.021967729553580284, -0.1555132418870926, 0.03156939148902893, 9.602569580078125, -0.1068829819560051, -0.013535499572753906, 1.0, 0.0003163603541906923, -0.00045617137220688164, -0.00031627772841602564, 1.0, 0.00038362256600521505, 0.00045629034866578877, -0.00038348123780451715, 1.0, 0.0
552266, 3.440000057220459, 99.94499969482422, 5.201995849609375, 8.432306289672852, -0.15792599320411682, -0.0024429999757558107, 0.0, 0.0, 0.06609448790550232, 0.10399939119815826, 0.45784083008766174, 9.183065414428711, 0.07498270273208618, 0.003383636474609375, 1.0, 0.0003187882830388844, -0.0004699768323916942, -0.00031870853854343295, 1.0, 0.0003656678891275078, 0.00047009106492623687, -0.00036552108940668404, 1.0, 0.0
552276, 3.430000066757202, 99.947998046875, 5.192424774169922, 8.437091827392578, -0.15313999354839325, -0.0048859999515116215, 0.0, 0.0, 0.053795188665390015, 0.032758720219135284, 0.33179205656051636, 9.305731773376465, 0.22958582639694214, 0.00676727294921875, 1.0, 0.00032122741686180234, -0.00048377455095760524, -0.0003211396106053144, 1.0, 0.0003721432585734874, 0.0004838917520828545, -0.00037199092912487686, 1.0, 0.0
552286, 3.440000057220459, 99.9520034790039, 5.187639236450195, 8.437091827392578, -0.1435689926147461, -0.0048859999515116215, 0.0, 0.0, -0.019587483257055283, -0.3822605609893799, -0.3489038944244385, 9.983044624328613, -0.06715738028287888, -0.0033826828002929688, 1.0, 0.0003236666671000421, -0.0004975722404196858, -0.0003235705953557044, 1.0, 0.00037861865712329745, 0.0004976924392394722, -0.00037846071063540876, 1.0, 0.0
552296, 3.430000066757202, 99.9469985961914, 5.192424774169922, 8.437091827392578, -0.12921200692653656, -0.0048859999515116215, 0.0, 0.0, -0.002444576472043991, -0.26668915152549744, -0.1528335064649582, 9.790356636047363, -0.3705456256866455, -0.003383636474609375, 1.0, 0.00032610600464977324, -0.0005113699589855969, -0.00032600146369077265, 1.0, 0.00038509408477693796, 0.0005114931846037507, -0.0003849304630421102, 1.0, 0.0
552306, 3.4200000762939453, 99.9469985961914, 5.201995849609375, 8.437091827392578, -0.12921200692653656, -0.0048859999515116215, 0.0024429999757558107, 0.0, 0.012221051380038261, -0.16982679069042206, 0.013043060898780823, 9.63124942779541, 0.10545878112316132, 0.0033826828002929688, 1.0, 0.00032854542951099575, -0.0005007376312278211, -0.0003284416743554175, 1.0, 0.00039156159618869424, 0.0005008638836443424, -0.0003914001863449812, 1.0, 0.0
552316, 3.430000066757202, 99.94200134277344, 5.19720983505249, 8.432306289672852, -0.12442599982023239, -0.0048859999515116215, 0.0024429999757558107, 0.0, 0.10480489581823349, 0.3652707636356354, 0.8727741837501526, 8.764748573303223, 0.08715035766363144, 0.0067691802978515625, 1.0, 0.0003309847670607269, -0.0004901053034700453, -0.00033088194322772324, 1.0, 0.00039802907849662006, 0.0004902345826849341, -0.00039786993875168264, 1.0, 0.0
552326, 3.430000066757202, 99.94599914550781, 5.19720983505249, 8.441878318786621, -0.1435689926147461, -0.0024429999757558107, 0.0, 0.0, 0.12033338844776154, 0.44113588333129883, 0.9880408048629761, 8.65625, 0.4738515615463257, -0.006770133972167969, 1.0, 0.0003334120847284794, -0.0005039110546931624, -0.00033331254962831736, 1.0, 0.000380074605345726, 0.0005040353862568736, -0.00037990970304235816, 1.0, 0.0
552336, 3.430000066757202, 99.94599914550781, 5.19720983505249, 8.437091827392578, -0.1627109944820404, -0.0024429999757558107, 0.0024429999757558107, 0.0, 0.13338452577590942, 0.49975937604904175, 1.063697099685669, 8.577210426330566, 0.059467509388923645, 0.006768226623535156, 1.0, 0.0003358391404617578, -0.0004932868178002536, -0.0003357527020853013, 1.0, 0.000362112041329965, 0.0004934060852974653, -0.0003619494382292032, 1.0, 0.0
552346, 3.430000066757202, 99.94400024414062, 5.201995849609375, 8.427520751953125, -0.15313999354839325, -0.0048859999515116215, 0.0, 0.0, 0.17773199081420898, 0.7333716154098511, 1.4214909076690674, 8.216032981872559, 0.04317459464073181, -0.003383636474609375, 1.0, 0.00033827844890765846, -0.0005070844199508429, -0.00033818380325101316, 1.0, 0.00036858764360658824, 0.000507206772454083, -0.0003684192197397351, 1.0, 0.0
552356, 3.430000066757202, 99.94499969482422, 5.206780910491943, 8.427520751953125, -0.1435689926147461, -0.0048859999515116215, 0.0, 0.0, 0.19804251194000244, 0.8208155632019043, 1.54334557056427, 8.09756088256836, 0.19750219583511353, -0.003383636474609375, 1.0, 0.0003407178446650505, -0.0005208820221014321, -0.00034061481710523367, 1.0, 0.00037506327498704195, 0.0005210074596107006, -0.00037488897214643657, 1.0, 0.0
552366, 3.430000066757202, 99.9469985961914, 5.19720983505249, 8.437091827392578, -0.12921200692653656, -0.0048859999515116215, 0.0, 0.0, 0.1815967559814453, 0.6959210634231567, 1.3161098957061768, 8.324796676635742, 0.06486321985721588, 0.0033826828002929688, 1.0, 0.0003431573277339339, -0.0005346796242520213, -0.0003430457436479628, 1.0, 0.0003815389354713261, 0.0005348082049749792, -0.0003813586663454771, 1.0, 0.0
552376, 3.430000066757202, 99.94599914550781, 5.187639236450195, 8.441878318786621, -0.11964099854230881, -0.0048859999515116215, 0.0024429999757558107, 0.0, 0.18451248109340668, 0.6857653856277466, 1.2750791311264038, 8.362444877624512, -0.12429659068584442, 0.0, 1.0, 0.0003455968981143087, -0.0005240471800789237, -0.00034548589610494673, 1.0, 0.00038800627226009965, 0.0005241789040155709, -0.0003878283314406872, 1.0, 0.0
552386, 3.430000066757202, 99.94100189208984, 5.1828532218933105, 8.437091827392578, -0.12442599982023239, -0.0024429999757558107, 0.0024429999757558107, 0.0, 0.26681873202323914, 1.1262611150741577, 1.9611852169036865, 7.6695709228515625, -0.020653024315834045, -0.0033826828002929688, 1.0, 0.00034802360460162163, -0.0005134231760166585, -0.000347926135873422, 1.0, 0.00037004356272518635, 0.0005135496030561626, -0.00036986800841987133, 1.0, 0.0
552396, 3.430000066757202, 99.94499969482422, 5.1828532218933105, 8.437091827392578, -0.13878299295902252, -0.0024429999757558107, 0.0024429999757558107, 0.0, 0.2725726068019867, 1.1140590906143188, 1.9096674919128418, 7.72108793258667, 0.3788786232471466, -0.006768226623535156, 1.0, 0.0003504504857119173, -0.0005027992301620543, -0.0003503661719150841, 1.0, 0.0003520808240864426, 0.0005029202438890934, -0.00035190771450288594, 1.0, 0.0
552406, 3.430000066757202, 99.94400024414062, 5.19720983505249, 8.437091827392578, -0.1627109944820404, -0.0024429999757558107, 0.0024429999757558107, 0.0, 0.29418066143989563, 1.1920080184936523, 2.0147922039031982, 7.626114845275879, -0.028179407119750977, -9.5367431640625e-07, 1.0, 0.00035287757054902613, -0.0004921752843074501, -0.0003528060333337635, 1.0, 0.0003341180563438684, 0.0004922908847220242, -0.000333947449689731, 1.0, 0.0
552416, 3.440000057220459, 99.94599914550781, 5.192424774169922, 8.437091827392578, -0.16749699413776398, -0.0048859999515116215, 0.0, 0.0, 0.27869752049446106, 1.0560945272445679, 1.7588045597076416, 7.878718852996826, 0.05212882161140442, 0.010151863098144531, 1.0, 0.00035531684989109635, -0.0005059727700427175, -0.00035523754195310175, 1.0, 0.0003405938914511353, 0.0005060915136709809, -0.0003404172312002629, 1.0, 0.0
552426, 3.430000066757202, 99.94999694824219, 5.178068161010742, 8.446662902832031, -0.1627109944820404, -0.0048859999515116215, 0.0024429999757558107, 0.0, 0.20068684220314026, 0.570614755153656, 0.9409018158912659, 8.6932373046875, -0.13823270797729492, -0.003383636474609375, 1.0, 0.00035775621654465795, -0.0004953402676619589, -0.0003576772578526288, 1.0, 0.00034706108272075653, 0.0004954620962962508, -0.00034688698360696435, 1.0, 0.0
552436, 3.430000066757202, 99.94499969482422, 5.187639236450195, 8.441878318786621, -0.1435689926147461, -0.0048859999515116215, 0.0, 0.0, 0.21510708332061768, 0.6292019486427307, 1.0238122940063477, 8.6137113571167, -0.4455964267253876, -0.0033845901489257812, 1.0, 0.0003601955249905586, -0.0005091377533972263, -0.0003601085627451539, 1.0, 0.00035353697603568435, 0.0005092627834528685, -0.00035335676511749625, 1.0, 0.0
552446, 3.430000066757202, 99.9469985961914, 5.19720983505249, 8.427520751953125, -0.11485499888658524, -0.0024429999757558107, 0.0024429999757558107, 0.0, 0.1937103122472763, 0.48203927278518677, 0.7656548619270325, 8.868484497070312, 0.0435599684715271, 0.0033845901489257812, 1.0, 0.00036262249341234565, -0.0004985139821656048, -0.00036254842416383326, 1.0, 0.00033557412098161876, 0.0004986334242857993, -0.00033539647120051086, 1.0, 0.0
552456, 3.440000057220459, 99.9469985961914, 5.187639236450195, 8.441878318786621, -0.10528399795293808, 0.0, 0.0048859999515116215, 0.0, 0.17538166046142578, 0.3581274747848511, 0.5558789968490601, 9.081645011901855, -0.13941903412342072, -0.0033845901489257812, 1.0, 0.0003650374710559845, -0.00046346912859007716, -0.0003649962891358882, 1.0, 0.0002931723720394075, 0.00046357401879504323, -0.00029300621827133, 1.0, 0.0
552466, 3.430000066757202, 99.94499969482422, 5.192424774169922, 8.451449394226074, -0.11485499888658524, 0.0024429999757558107, 0.0048859999515116215, 0.0, 0.19311931729316711, 0.44385403394699097, 0.6955203413963318, 8.952155113220215, -0.11653773486614227, 0.0033845901489257812, 1.0, 0.00036744261160492897, -0.0004284332972019911, -0.0003674426698125899, 1.0, 0.00022634054766967893, 0.0004285145259927958, -0.00022618604998569936, 1.0, 0.0
552476, 3.430000066757202, 99.94599914550781, 5.216352939605713, 8.417948722839355, -0.1818539947271347, 0.0024429999757558107, 0.0048859999515116215, 0.0, 0.19169841706752777, 0.41736459732055664, 0.6348121166229248, 9.006093978881836, 0.07100927829742432, 0.010151863098144531, 1.0, 0.00036985008046031, -0.00039339764043688774, -0.000369886722182855, 1.0, 0.000159508635988459, 0.0003934548585675657, -0.00015936596901156008, 1.0, 0.0
552486, 3.440000057220459, 99.94599914550781, 5.225924015045166, 8.408377647399902, -0.2057819962501526, 0.0, 0.0024429999757558107, 0.0, 0.1903456151485443, 0.39217472076416016, 0.5837420225143433, 9.057164192199707, -0.029623880982398987, -0.0067691802978515625, 1.0, 0.0003722695109900087, -0.000382783095119521, -0.00037232451722957194, 1.0, 0.00011711567640304565, 0.0003828250337392092, -0.00011697597801685333, 1.0, 0.0
552496, 3.440000057220459, 99.947998046875, 5.221138000488281, 8.413164138793945, -0.2249249964952469, -0.007329999934881926, 0.0, 0.0, 0.1556376963853836, 0.1786559373140335, 0.2285342812538147, 9.412371635437012, -0.027935057878494263, 0.0, 1.0, 0.00037471746327355504, -0.0003965713840443641, -0.0003747589944396168, 1.0, 0.0001480317732784897, 0.0003966251097153872, -0.0001478860212955624, 1.0, 0.0
552506, 3.440000057220459, 99.94599914550781, 5.192424774169922, 8.427520751953125, -0.21056799590587616, -0.00977300014346838, -0.0024429999757558107, 0.0, 0.15953142940998077, 0.1928328573703766, 0.2379673719406128, 9.39278793334961, -0.19429655373096466, 0.0, 1.0, 0.00037717551458626986, -0.0004347804351709783, -0.00037718945532105863, 1.0, 0.00020338706963229924, 0.0004348552320152521, -0.0002032260235864669, 1.0, 0.0
552516, 3.4200000762939453, 99.94499969482422, 5.178068161010742, 8.461019515991211, -0.15313999354839325, -0.012217000126838684, -0.0048859999515116215, 0.0, 0.17908598482608795, 0.29515892267227173, 0.41291099786758423, 9.231379508972168, 0.010533064603805542, -0.010150909423828125, 1.0, 0.0003796463133767247, -0.0004974101320840418, -0.000379612814867869, 1.0, 0.000283191679045558, 0.0004975154879502952, -0.0002830059383995831, 0.9999999403953552, 0.0
552526, 3.430000066757202, 99.94400024414062, 5.168496131896973, 8.4562349319458, -0.08614099770784378, -0.00977300014346838, -0.0024429999757558107, 0.0, 0.2126753181219101, 0.47301408648490906, 0.6844048500061035, 8.94973373413086, 0.0885283499956131, 0.013535499572753906, 1.0, 0.00038210995262488723, -0.0005356189212761819, -0.00038203809526748955, 1.0, 0.0003385471645742655, 0.000535745988599956, -0.0003383456787560135, 0.9999998807907104, 0.0
552536, 3.430000066757202, 99.94599914550781, 5.1828532218933105, 8.4562349319458, -0.062212999910116196, -0.007329999934881926, 0.0, 0.0, 0.2075965255498886, 0.4240066409111023, 0.6037893891334534, 9.040502548217773, 0.1538792848587036, -0.010151863098144531, 1.0, 0.00038456261972896755, -0.0005494069191627204, -0.00038446951657533646, 1.0, 0.0003694634069688618, 0.0005495465593412519, -0.00036925534368492663, 0.9999998807907104, 0.0
552546, 3.440000057220459, 99.94300079345703, 5.201995849609375, 8.437091827392578, -0.10528399795293808, 0.0024429999757558107, 0.0048859999515116215, 0.0, 0.25054287910461426, 0.6494985818862915, 0.9591555595397949, 8.685136795043945, -0.049470916390419006, 0.010153770446777344, 1.0, 0.00038696202682331204, -0.0005143724265508354, -0.00038691857480444014, 1.0, 0.0003026308841072023, 0.0005144872120581567, -0.000302434986224398, 0.9999999403953552, 0.0
552556, 3.440000057220459, 99.9469985961914, 5.19720983505249, 8.432306289672852, -0.15313999354839325, 0.0048859999515116215, 0.007329999934881926, 0.0, 0.22225551307201385, 0.4614576995372772, 0.6325739026069641, 9.004948616027832, 0.19438321888446808, 0.0, 1.0, 0.00038935118936933577, -0.000454907538369298, -0.0003893726971000433, 1.0, 0.00021135882707312703, 0.00045498774852603674, -0.00021118471340741962, 1.0, 0.0
552566, 3.430000066757202, 99.93900299072266, 5.19720983505249, 8.422735214233398, -0.18663999438285828, 0.0024429999757558107, 0.0048859999515116215, 0.0, 0.3278728425502777, 1.0407087802886963, 1.5537731647491455, 8.076981544494629, -0.17505457997322083, -0.006770133972167969, 1.0, 0.0003917569119948894, -0.0004198733367957175, -0.0003918162256013602, 1.0, 0.0001445261441404, 0.00041992805199697614, -0.00014436457422561944, 1.0, 0.0
552576, 3.430000066757202, 99.94300079345703, 5.211566925048828, 8.417948722839355, -0.21535399556159973, -0.0024429999757558107, 0.0024429999757558107, 0.0, 0.35186606645584106, 1.1328953504562378, 1.6844419240951538, 7.953080654144287, 0.5074732899665833, -0.006768226623535156, 1.0, 0.0003941854811273515, -0.0004092501476407051, -0.00039425387512892485, 1.0, 0.00012656295439228415, 0.0004092981980647892, -0.00012640452769119292, 1.0, 0.0
552586, 3.430000066757202, 99.94499969482422, 5.201995849609375, 8.422735214233398, -0.21535399556159973, -0.007329999934881926, 0.0, 0.0, 0.34074026346206665, 1.0218501091003418, 1.4740734100341797, 8.160065650939941, 0.06789237260818481, 0.006768226623535156, 1.0, 0.00039663424831815064, -0.0004230377380736172, -0.0003966882359236479, 1.0, 0.00015747937140986323, 0.0004230983031447977, -0.00015731449821032584, 1.0, 0.0
552596, 3.430000066757202, 99.9469985961914, 5.1828532218933105, 8.437091827392578, -0.19142499566078186, -0.00977300014346838, -0.0024429999757558107, 0.0, 0.29750972986221313, 0.7328948378562927, 0.9790172576904297, 8.651737213134766, -0.11327925324440002, -0.003383636474609375, 1.0, 0.0003990937548223883, -0.00046124556683935225, -0.0003991183184552938, 1.0, 0.00021283551177475601, 0.00046132845454849303, -0.00021265444229356945, 1.0, 0.0
552606, 3.430000066757202, 99.947998046875, 5.178068161010742, 8.446662902832031, -0.12921200692653656, -0.012217000126838684, -0.0024429999757558107, 0.0, 0.2442246675491333, 0.3984740972518921, 0.4249051809310913, 9.209234237670898, -0.26900121569633484, -0.0033845901489257812, 1.0, 0.00040156664908863604, -0.000499443500302732, -0.0004015462764073163, 1.0, 0.0002926317392848432, 0.0004995587514713407, -0.0002924342988990247, 0.9999999403953552, 0.0
552616, 3.4200000762939453, 99.94400024414062, 5.201995849609375, 8.427520751953125, -0.062212999910116196, -0.0048859999515116215, 0.0, 0.0, 0.26568153500556946, 0.5017421245574951, 0.5885246992111206, 9.048999786376953, -0.30488765239715576, 0.0033845901489257812, 1.0, 0.0004040059866383672, -0.0005132406949996948, -0.0004039783379994333, 1.0, 0.0002991082437802106, 0.0005133592057973146, -0.00029890405130572617, 0.9999999403953552, 0.0
552626, 3.430000066757202, 99.94599914550781, 5.206780910491943, 8.441878318786621, -0.07656999677419662, 0.0, 0.0024429999757558107, 0.0, 0.2502824664115906, 0.3916141986846924, 0.41375985741615295, 9.237298965454102, 0.08770684897899628, 0.0033855438232421875, 1.0, 0.000406420323997736, -0.0005026276339776814, -0.0004064176173415035, 1.0, 0.0002567149349488318, 0.0005027297302149236, -0.00025651376927271485, 0.9999999403953552, 0.0
552636, 3.440000057220459, 99.94300079345703, 5.1828532218933105, 8.446662902832031, -0.12921200692653656, 0.0024429999757558107, 0.0048859999515116215, 0.0, 0.2844685912132263, 0.5673908591270447, 0.6785979866981506, 8.95892333984375, -0.10275962948799133, 0.0135345458984375, 1.0, 0.00040882284520193934, -0.0004675945674534887, -0.00040886271744966507, 1.0, 0.0001898816553875804, 0.00046767015010118484, -0.00018969352822750807, 1.0, 0.0
552646, 3.430000066757202, 99.94499969482422, 5.178068161010742, 8.446662902832031, -0.19142499566078186, 0.0024429999757558107, 0.0048859999515116215, 0.0, 0.28218257427215576, 0.5288186073303223, 0.6018750667572021, 9.03226375579834, 0.15203070640563965, -0.013537406921386719, 1.0, 0.00041122769471257925, -0.00043256167555227876, -0.0004113054892513901, 1.0, 0.00012304828851483762, 0.00043261039536446333, -0.00012287335994187742, 1.0, 0.0
552656, 3.440000057220459, 99.9530029296875, 5.192424774169922, 8.437091827392578, -0.21535399556159973, -0.0024429999757558107, 0.0024429999757558107, 0.0, 0.14791196584701538, -0.25721096992492676, -0.6774289608001709, 10.31495189666748, -0.04017642140388489, -0.0033826828002929688, 1.0, 0.00041365603101439774, -0.00042193883564323187, -0.0004137429059483111, 1.0, 0.00010508488776395097, 0.00042198048322461545, -0.00010491328430362046, 1.0, 0.0
552666, 3.440000057220459, 99.94599914550781, 5.216352939605713, 8.408377647399902, -0.21535399556159973, -0.007329999934881926, 0.0, 0.0, 0.1498151570558548, -0.23839953541755676, -0.6392719149589539, 10.273411750793457, -0.7015633583068848, 0.0033845901489257812, 1.0, 0.0004161051765549928, -0.00043572584399953485, -0.0004161775577813387, 1.0, 0.00013600155944004655, 0.00043578053009696305, -0.0001358232257189229, 1.0, 0.0
552676, 3.430000066757202, 99.9469985961914, 5.221138000488281, 8.403592109680176, -0.17228299379348755, -0.00977300014346838, -0.0048859999515116215, 0.0, 0.13439305126667023, -0.3185911178588867, -0.7587767839431763, 10.392915725708008, 0.022662758827209473, -0.003383636474609375, 1.0, 0.00041856541065499187, -0.0004983625840395689, -0.0004186051373835653, 1.0, 0.00019136859918944538, 0.0004984406405128539, -0.00019116312614642084, 0.9999999403953552, 0.0
552686, 3.440000057220459, 99.94200134277344, 5.163711071014404, 8.461019515991211, -0.11485499888658524, -0.00977300014346838, -0.0048859999515116215, 0.0, 0.20144596695899963, 0.07258206605911255, -0.11305540800094604, 9.747194290161133, -0.06536795198917389, -9.5367431640625e-07, 0.9999999403953552, 0.0004210291081108153, -0.0005609992076642811, -0.00042102925362996757, 1.0, 0.00024673581356182694, 0.000561100896447897, -0.0002465028956066817, 0.9999998807907104, 0.0
552696, 3.430000066757202, 99.94400024414062, 5.154139041900635, 8.465806007385254, -0.11006899923086166, -0.00977300014346838, 0.0, 0.0, 0.22878240048885345, 0.22247619926929474, 0.12822648882865906, 9.502528190612793, 0.3532058000564575, 0.0, 0.9999999403953552, 0.00042349626892246306, -0.0005747756804339588, -0.00042346195550635457, 1.0, 0.0003020825970452279, 0.0005749012343585491, -0.00030184249044395983, 0.9999998807907104, 0.0
552706, 3.440000057220459, 99.94499969482422, 5.178068161010742, 8.446662902832031, -0.10528399795293808, -0.0048859999515116215, 0.0, 0.0, 0.23479126393795013, 0.2451936900615692, 0.1662122905254364, 9.467926979064941, 0.1337713599205017, -0.0033845901489257812, 0.9999999403953552, 0.00042593610123731196, -0.0005885727005079389, -0.0004258939006831497, 1.0, 0.0003085594216827303, 0.000588701746892184, -0.00030831206822767854, 0.9999998807907104, 0.0
552716, 3.430000066757202, 99.9489974975586, 5.201995849609375, 8.427520751953125, -0.09571199864149094, -0.0024429999757558107, 0.0024429999757558107, 0.0024429999757558107, 0.1748901903629303, -0.10699175298213959, -0.40350374579429626, 10.041028022766113, 0.018986433744430542, 0.0033845901489257812, 0.9999999403953552, 0.0004039316554553807, -0.0005779501516371965, -0.0004039033083245158, 1.0, 0.00029059586813673377, 0.0005780647625215352, -0.0002903660060837865, 0.9999998807907104, 0.0
552726, 3.430000066757202, 99.94400024414062, 5.211566925048828, 8.422735214233398, -0.12442599982023239, -0.0024429999757558107, 0.0024429999757558107, 0.0, 0.20606030523777008, 0.07202248275279999, -0.1038159728050232, 9.744722366333008, -0.31342339515686035, 0.0033855438232421875, 0.9999999403953552, 0.00040635737241245806, -0.0005673271953128278, -0.00040634250035509467, 1.0, 0.0002726325474213809, 0.0005674352287314832, -0.0002724055666476488, 0.9999998807907104, 0.0
552736, 3.430000066757202, 99.94599914550781, 5.19720983505249, 8.432306289672852, -0.15792599320411682, -0.0024429999757558107, 0.0048859999515116215, 0.0, 0.1990540623664856, 0.02717261016368866, -0.17803552746772766, 9.815558433532715, 0.16213740408420563, 0.0033817291259765625, 0.9999999403953552, 0.00040878329309634864, -0.0005322743090800941, -0.0004087881534360349, 1.0, 0.0002546592731960118, 0.0005323756486177444, -0.00025444518541917205, 0.9999998807907104, 0.0
552746, 3.430000066757202, 99.9489974975586, 5.1828532218933105, 8.441878318786621, -0.1818539947271347, -0.0048859999515116215, 0.0024429999757558107, 0.0, 0.14450335502624512, -0.28562799096107483, -0.6849510669708252, 10.319090843200684, -0.03880658745765686, -0.003383636474609375, 0.9999999403953552, 0.000411222834372893, -0.0005216414574533701, -0.00041122696711681783, 1.0, 0.0002611258823890239, 0.0005217460566200316, -0.0002609148505143821, 0.9999998807907104, 0.0
552756, 3.430000066757202, 99.9469985961914, 5.19720983505249, 8.427520751953125, -0.15313999354839325, -0.007329999934881926, 0.0, 0.0, 0.12975798547267914, -0.3597436547279358, -0.7938783764839172, 10.428016662597656, -0.2754887640476227, -0.003383636474609375, 0.9999999403953552, 0.00041367506491951644, -0.000535428524017334, -0.00041365946526639163, 1.0, 0.00029204253223724663, 0.0005355464527383447, -0.0002918245445471257, 0.9999998807907104, 0.0
552766, 3.430000066757202, 99.94499969482422, 5.216352939605713, 8.422735214233398, -0.11006899923086166, -0.0048859999515116215, 0.0, 0.0, 0.15076887607574463, -0.2278258055448532, -0.5575798749923706, 10.201871871948242, -0.05958157777786255, -1.9073486328125e-06, 0.9999999403953552, 0.00041611463529989123, -0.0005492256605066359, -0.00041609155596233904, 1.0, 0.0002985192113555968, 0.0005493469070643187, -0.00029829420964233577, 0.9999998807907104, 0.0
552776, 3.430000066757202, 99.94499969482422, 5.206780910491943, 8.437091827392578, -0.08614099770784378, -0.0024429999757558107, 0.0024429999757558107, 0.0, 0.16866543889045715, -0.11876844614744186, -0.3686777949333191, 10.016353607177734, 0.12387914955615997, 0.010153770446777344, 0.9999999403953552, 0.00041854087612591684, -0.0005386029370129108, -0.00041853083530440927, 1.0, 0.0002805557451210916, 0.0005387173732742667, -0.00028033385751768947, 0.9999998807907104, 0.0
552786, 3.430000066757202, 99.94300079345703, 5.1828532218933105, 8.451449394226074, -0.10049799829721451, 0.0, 0.0048859999515116215, 0.0, 0.21497111022472382, 0.14713378250598907, 0.061323195695877075, 9.579584121704102, 0.10153725743293762, 0.003383636474609375, 0.9999999403953552, 0.0004209541657473892, -0.0005035604699514806, -0.0004209767794236541, 1.0, 0.00023815204622223973, 0.0005036578513681889, -0.00023794351727701724, 0.9999999403953552, 0.0
552796, 3.430000066757202, 99.947998046875, 5.187639236450195, 8.437091827392578, -0.12921200692653656, 0.0024429999757558107, 0.007329999934881926, 0.0024429999757558107, 0.17337971925735474, -0.09661483764648438, -0.3409264087677002, 9.975065231323242, 0.23879067599773407, -0.006768226623535156, 1.0, 0.0003989266406279057, -0.0004440883931238204, -0.000398997071897611, 1.0, 0.00017130796913988888, 0.0004441523924469948, -0.0001711355580482632, 1.0, 0.0
552806, 3.440000057220459, 99.94499969482422, 5.225924015045166, 8.408377647399902, -0.17228299379348755, 0.0024429999757558107, 0.007329999934881926, 0.0, 0.187837153673172, -0.012411624193191528, -0.19250504672527313, 9.83341121673584, -0.21644552052021027, -0.006768226623535156, 1.0, 0.0004013330617453903, -0.00038461483200080693, -0.0004014433652628213, 1.0, 0.00010446519445395097, 0.0003846525796689093, -0.00010431544797029346, 1.0, 0.0
552816, 3.430000066757202, 99.9469985961914, 5.211566925048828, 8.417948722839355, -0.23928199708461761, -0.007329999934881926, -0.0024429999757558107, -0.0024429999757558107, 0.16667799651622772, -0.13363803923130035, -0.3889673948287964, 10.0264892578125, 0.07760347425937653, 0.00676727294921875, 1.0, 0.00042821106035262346, -0.00042283220682293177, -0.00042830550228245556, 1.0, 0.00013539151404984295, 0.00042288514669053257, -0.00013521607615984976, 1.0, 0.0
552826, 3.430000066757202, 99.94499969482422, 5.149353981018066, 8.475377082824707, -0.2249249964952469, -0.012217000126838684, -0.0048859999515116215, 0.0, 0.18217037618160248, -0.04192846268415451, -0.23743513226509094, 9.871574401855469, -0.10567216575145721, -0.0033845901489257812, 1.0, 0.00043068089871667325, -0.00048545782919973135, -0.0004307331400923431, 1.0, 0.0002151993103325367, 0.0004855452571064234, -0.00021499600552488118, 0.9999999403953552, 0.0
552836, 3.430000066757202, 99.94400024414062, 5.130210876464844, 8.475377082824707, -0.15313999354839325, -0.014659999869763851, -0.0048859999515116215, 0.0024429999757558107, 0.212419793009758, 0.12978339195251465, 0.03136572241783142, 9.58923625946045, 0.08467783033847809, -0.0033826828002929688, 0.9999999403953552, 0.00040873760008253157, -0.0005480727413669229, -0.00040872578392736614, 1.0, 0.0003194372693542391, 0.0005482003325596452, -0.0003192176518496126, 0.9999998807907104, 0.0
552846, 3.430000066757202, 99.94599914550781, 5.192424774169922, 8.441878318786621, -0.057427000254392624, -0.00977300014346838, -0.0024429999757558107, 0.0024429999757558107, 0.20461630821228027, 0.07844589650630951, -0.03262397646903992, 9.673531532287598, 0.1541982889175415, -0.013537406921386719, 0.9999999403953552, 0.000386774045182392, -0.0005862799007445574, -0.0003867196792270988, 1.0, 0.00037479386082850397, 0.0005864230915904045, -0.0003745706635527313, 0.9999998211860657, 0.0
552856, 3.430000066757202, 99.94499969482422, 5.240281105041504, 8.403592109680176, -0.004784999880939722, -0.0048859999515116215, 0.0024429999757558107, 0.0, 0.21427330374717712, 0.1284729689359665, 0.05546289682388306, 9.592211723327637, -0.045750439167022705, 0.020305633544921875, 0.9999999403953552, 0.0003892139357049018, -0.0005756471655331552, -0.00038915977347642183, 1.0, 0.0003812607319559902, 0.0005757937906309962, -0.0003810402122326195, 0.9999998211860657, 0.0
