timestamp__ms,temp__C,pressure__kpa,accel_x__m_s2,accel_y__m_s2,accel_z__m_s2,gyro_x__dps,gyro_y__dps,gyro_z__dps,e_alt__m,e_vel__m_s,e_acc__m_s2,e_bias,innovation0,innovation1,r1c1,r1c2,r1c3,r2c1,r2c2,r2c3,r3c1,r3c2,r3c3,effort
1415416, 5.539999961853027, 99.90799713134766, 6.652046203613281, 7.355535984039307, -0.5455629825592041, -0.0024429999757558107, 0.00977300014346838, -0.0024429999757558107, -0.12606492638587952, -0.151007741689682, -0.1247706413269043, 10.02962589263916, 0.0, 0.0, 1.0, 0.0, 0.0, 0.0, 1.0, 0.0, 0.0, 0.0, 1.0, 0.0
1415426, 5.539999961853027, 99.90699768066406, 6.561119079589844, 7.4799628257751465, -0.22970999777317047, -0.017103999853134155, -0.0048859999515116215, 0.0, 0.1404941827058792, 0.32554891705513, 0.27395308017730713, 9.654590606689453, 0.0, 0.0, 1.0, 0.0, 0.0, 0.0, 1.0, 0.0, 0.0, 0.0, 1.0, 0.0
1415436, 5.539999961853027, 99.90699768066406, 6.427121162414551, 7.59960412979126, -0.05264199897646904, -0.012217000126838684, -0.012217000126838684, 0.0024429999757558107, 0.4021308422088623, 0.7887897491455078, 0.6256239414215088, 9.292768478393555, 0.0, 0.0, 1.0, 0.0, 0.0, 0.0, 1.0, 0.0, 0.0, 0.0, 1.0, 0.0
1415446, 5.550000190734863, 99.90499877929688, 6.436692237854004, 7.542176246643066, -0.4402790069580078, 0.00977300014346838, 0.0, 0.007329999934881926, 0.4801850914955139, 0.9200512170791626, 0.6903485059738159, 9.19420337677002, 0.0, 0.0, 1.0, 0.0, 0.0, 0.0, 1.0, 0.0, 0.0, 0.0, 1.0, 0.0
1415456, 5.539999961853027, 99.90499877929688, 6.709474086761475, 7.240681171417236, -0.799202024936676, 0.017103999853134155, 0.017103999853134155, 0.007329999934881926, 0.5726737380027771, 1.075341820716858, 0.7868233323097229, 9.077424049377441, 0.0, 0.0, 1.0, 0.0, 0.0, 0.0, 1.0, 0.0, 0.0, 0.0, 1.0, 0.0
1415466, 5.550000190734863, 99.90299987792969, 6.680759906768799, 7.269394874572754, -0.4594210088253021, -0.021990999579429626, -0.017103999853134155, 0.0048859999515116215, 0.39748144149780273, 0.7517196536064148, 0.5264495015144348, 9.337799072265625, 0.0, 0.0, 1.0, 0.0, 0.0, 0.0, 1.0, 0.0, 0.0, 0.0, 1.0, 0.0
1415476, 5.539999961853027, 99.9020004272461, 6.585046768188477, 7.355535984039307, -0.5359920263290405, -0.0048859999515116215, -0.007329999934881926, 0.0048859999515116215, 0.6300921440124512, 1.158132791519165, 0.8348438143730164, 9.022634506225586, 0.0, 0.0, 1.0, 0.0, 0.0, 0.0, 1.0, 0.0, 0.0, 0.0, 1.0, 0.0
1415486, 5.550000190734863, 99.90599822998047, 6.671188831329346, 7.293323040008545, -0.6843469738960266, 0.017103999853134155, 0.019547000527381897, 0.0048859999515116215, 0.24299877882003784, 0.4558289647102356, 0.29338234663009644, 9.581016540527344, 0.0, 0.0, 1.0, 0.0, 0.0, 0.0, 1.0, 0.0, 0.0, 0.0, 1.0, 0.0
1415496, 5.550000190734863, 99.90499877929688, 6.781259059906006, 7.221538066864014, -0.47377800941467285, -0.0024429999757558107, 0.00977300014346838, 0.0024429999757558107, 0.3754197359085083, 0.6866326928138733, 0.499136745929718, 9.402334213256836, 0.0, 0.0, 1.0, 0.0, 0.0, 0.0, 1.0, 0.0, 0.0, 0.0, 1.0, 0.0
1415506, 5.539999961853027, 99.9010009765625, 6.5898332595825195, 7.422534942626953, -0.22013899683952332, -0.024434000253677368, -0.019547000527381897, 0.0048859999515116215, 0.7637909650802612, 1.371554970741272, 1.0398937463760376, 8.868346214294434, 0.0, 0.0, 1.0, 0.0, 0.0, 0.0, 1.0, 0.0, 0.0, 0.0, 1.0, 0.0
1415516, 5.550000190734863, 99.91000366210938, 6.39362096786499, 7.633103847503662, -0.26799601316452026, -0.014659999869763851, -0.021990999579429626, 0.007329999934881926, 0.10483938455581665, 0.18293285369873047, 0.10814005136489868, 9.810251235961914, 0.0, 0.0, 1.0, 0.0, 0.0, 0.0, 1.0, 0.0, 0.0, 0.0, 1.0, 0.0
1415526, 5.539999961853027, 99.91799926757812, 19.898712158203125, 23.30609130859375, -0.894914984703064, -0.32742300629615784, -0.27611100673675537, 0.0024429999757558107, -0.47427797317504883, -0.8514456152915955, 19.696807861328125, 10.8535737991333, 0.0, 0.0, 1.0, 0.0, 0.0, 0.0, 1.0, 0.0, 0.0, 0.0, 1.0, 0.0
1415536, 5.550000190734863, 99.91000366210938, -31.838897705078125, -30.61855697631836, 7.570889949798584, -1.5076149702072144, -0.09285099804401398, 0.00977300014346838, -0.007249236106872559, 0.1913508176803589, -53.520294189453125, 9.35629653930664, 0.0, 0.0, 1.0, 0.0, 0.0, 0.0, 1.0, 0.0, 0.0, 0.0, 1.0, 0.0
1415546, 5.550000190734863, 99.90699768066406, 10.126424789428711, 11.016554832458496, 8.925228118896484, 3.7384939193725586, 1.7886130809783936, -1.0164790153503418, 0.3592396378517151, 0.31071919202804565, 5.449134826660156, 9.501151084899902, 0.0, 0.0, 1.0, 0.0, 0.0, 0.0, 1.0, 0.0, 0.0, 0.0, 1.0, 0.0
1415556, 5.550000190734863, 99.90599822998047, 0.47377800941467285, 5.833701133728027, -6.283552169799805, 3.657860040664673, 3.616321086883545, -0.9676100015640259, 0.34067535400390625, 0.32609862089157104, -4.954862594604492, 9.414928436279297, 0.0, 0.0, 1.0, 0.0, 0.0, 0.0, 1.0, 0.0, 0.0, 0.0, 1.0, 0.0
1415566, 5.550000190734863, 99.89600372314453, 2.344965934753418, 12.54317569732666, -1.9621139764785767, 3.4061830043792725, 2.8173089027404785, -0.8454369902610779, 0.8005163669586182, 1.0907771587371826, 1.6844778060913086, 8.843018531799316, 0.0, 0.0, 1.0, 0.0, 0.0, 0.0, 1.0, 0.0, 0.0, 0.0, 1.0, 0.0
1415576, 5.539999961853027, 99.89700317382812, -2.4693920612335205, 17.35274887084961, -6.350551128387451, 1.947437047958374, 1.6835439205169678, -0.3176490068435669, 0.6833114624023438, 0.8791301250457764, 1.5016610622406006, 9.022453308105469, 0.0, 0.0, 1.0, 0.0, 0.0, 0.0, 1.0, 0.0, 0.0, 0.0, 1.0, 0.0
1415586, 5.539999961853027, 99.91100311279297, 3.249453067779541, 7.613961219787598, -2.6895320415496826, 0.6279690265655518, 0.8136720061302185, 0.2932150065898895, 0.021861612796783447, -0.3005916476249695, -2.247598886489868, 9.929192543029785, 0.0, 0.0, 1.0, 0.0, 0.0, 0.0, 1.0, 0.0, 0.0, 0.0, 1.0, 0.0
1415596, 5.539999961853027, 99.9000015258789, 8.106882095336914, 6.996613025665283, -2.574676990509033, 0.32742300629615784, 0.4056139886379242, 0.38117900490760803, 0.5993959307670593, 0.7118586301803589, 1.5300605297088623, 9.149715423583984, 0.0, 0.0, 1.0, 0.0, 0.0, 0.0, 1.0, 0.0, 0.0, 0.0, 1.0, 0.0
1415606, 5.550000190734863, 99.90699768066406, 21.34876251220703, 14.34736442565918, -2.7996020317077637, -0.07330299913883209, 0.36163198947906494, 0.6524029970169067, -0.005127310752868652, -0.36313700675964355, 15.072514533996582, 10.16843318939209, 0.0, 0.0, 1.0, 0.0, 0.0, 0.0, 1.0, 0.0, 0.0, 0.0, 1.0, 0.0
1415616, 5.539999961853027, 99.90599822998047, 2.268394947052002, -9.762716293334961, 1.7371890544891357, -0.04153800010681152, 0.5717689990997314, 0.5033519864082336, -0.002262207679450512, -0.20217645168304443, -15.119183540344238, 9.819934844970703, 0.0, 0.0, 1.0, 0.0, 0.0, 0.0, 1.0, 0.0, 0.0, 0.0, 1.0, 0.0
1415626, 5.550000190734863, 99.90899658203125, 9.523432731628418, -1.5409770011901855, 3.4504499435424805, 0.9529489874839783, 0.8527669906616211, -0.1343899965286255, -0.13313491642475128, -0.5816782712936401, -4.476824760437012, 10.12126350402832, 0.0, 0.0, 1.0, 0.0, 0.0, 0.0, 1.0, 0.0, 0.0, 0.0, 1.0, 0.0
1415636, 5.550000190734863, 99.91000366210938, 5.1589250564575195, 3.7519450187683105, -0.11006899923086166, 1.2266169786453247, 1.1068869829177856, -0.39583998918533325, -0.4961143732070923, -1.262636661529541, -4.327353000640869, 10.628288269042969, 0.0, 0.0, 1.0, 0.0, 0.0, 0.0, 1.0, 0.0, 0.0, 0.0, 1.0, 0.0
1415646, 5.550000190734863, 99.90499877929688, 7.044468879699707, 10.949556350708008, -0.2632099986076355, 0.8991929888725281, 0.7843499779701233, -0.41050100326538086, 0.1616266965866089, -0.11069488525390625, 2.962602138519287, 9.761086463928223, 0.0, 0.0, 1.0, 0.0, 0.0, 0.0, 1.0, 0.0, 0.0, 0.0, 1.0, 0.0
1415656, 5.539999961853027, 99.90599822998047, 14.385648727416992, 23.81815528869629, -1.7850450277328491, 0.5082389712333679, 0.4813610017299652, -0.42271798849105835, -0.06949222087860107, -0.49129462242126465, 16.771533966064453, 10.242613792419434, 0.0, 0.0, 1.0, 0.0, 0.0, 0.0, 1.0, 0.0, 0.0, 0.0, 1.0, 0.0
1415666, 5.539999961853027, 99.9209976196289, 99.34999084472656, 105.42776489257812, -9.097511291503906, 0.07818999886512756, -0.6670640110969543, -0.06352899968624115, -0.9063336849212646, -1.8078606128692627, 132.07806396484375, 12.721526145935059, 0.0, 0.0, 1.0, 0.0, 0.0, 0.0, 1.0, 0.0, 0.0, 0.0, 1.0, 0.0
1415676, 5.550000190734863, 99.88899993896484, 120.53125762939453, 120.02877044677734, -5.608776092529297, 0.2101369947195053, 0.45692700147628784, 0.0879639983177185, 0.9148163795471191, 2.779299736022949, 159.6636199951172, 10.437955856323242, 0.0, 0.0, 1.0, 0.0, 0.0, 0.0, 1.0, 0.0, 0.0, 0.0, 1.0, 0.0
1415686, 5.550000190734863, 99.8949966430664, 121.1342544555664, 118.980712890625, -0.5216349959373474, 0.5204570293426514, 0.948062002658844, 0.00977300014346838, 0.915978729724884, 4.314241886138916, 159.30401611328125, 10.482906341552734, 0.0, 0.0, 1.0, 0.0, 0.0, 0.0, 1.0, 0.0, 0.0, 0.0, 1.0, 0.0
1415696, 5.539999961853027, 99.9020004272461, 122.88579559326172, 120.07662200927734, -5.436491966247559, 1.0115920305252075, 1.062904953956604, -0.07085999846458435, 0.6151832342147827, 5.280067443847656, 160.8023223876953, 10.998007774353027, 0.0, 0.0, 1.0, 0.0, 0.0, 0.0, 1.0, 0.0, 0.0, 0.0, 1.0, 0.0
1415706, 5.539999961853027, 99.88999938964844, 123.70413970947266, 120.8853988647461, -6.39362096786499, 1.3536770343780518, 1.089782953262329, -0.15149399638175964, 1.118621826171875, 7.676955223083496, 162.5596923828125, 10.391207695007324, 0.0, 0.0, 1.0, 0.0, 0.0, 0.0, 1.0, 0.0, 0.0, 0.0, 1.0, 0.0
1415716, 5.539999961853027, 99.88800048828125, 121.56495666503906, 122.18230438232422, -4.627717971801758, 1.348789930343628, 1.0848959684371948, -0.15149399638175964, 1.1640034914016724, 9.232121467590332, 161.91543579101562, 10.439889907836914, 0.0, 0.0, 1.0, 0.0, 0.0, 0.0, 1.0, 0.0, 0.0, 0.0, 1.0, 0.0
1415726, 5.539999961853027, 99.87799835205078, 117.90872955322266, 126.51810455322266, -12.160324096679688, 1.4563019275665283, 1.163087010383606, -0.1221729964017868, 1.98268723487854, 12.131478309631348, 163.3961639404297, 9.439689636230469, 0.0, 0.0, 1.0, 0.0, 0.0, 0.0, 1.0, 0.0, 0.0, 0.0, 1.0, 0.0
1415736, 5.539999961853027, 99.88099670410156, 120.14362335205078, 124.05828094482422, -9.896714210510254, 0.9382879734039307, 0.9749400019645691, -0.06108599901199341, 2.118572473526001, 13.776847839355469, 163.2478485107422, 9.428956031799316, 0.0, 0.0, 1.0, 0.0, 0.0, 0.0, 1.0, 0.0, 0.0, 0.0, 1.0, 0.0
1415746, 5.550000190734863, 99.87300109863281, 123.75678253173828, 124.34542083740234, -5.374279022216797, 0.6059780120849609, 0.5937600135803223, 0.051311999559402466, 2.738905906677246, 16.2548770904541, 166.63919067382812, 8.795548439025879, 0.0, 0.0, 1.0, 0.0, 0.0, 0.0, 1.0, 0.0, 0.0, 0.0, 1.0, 0.0
1415756, 5.539999961853027, 99.86399841308594, 123.35000610351562, 122.85708618164062, -4.2305097579956055, 0.6768379807472229, 0.4618139863014221, 0.07085999846458435, 3.1986942291259766, 18.436203002929688, 165.71853637695312, 8.376145362854004, 0.0, 0.0, 1.0, 0.0, 0.0, 0.0, 1.0, 0.0, 0.0, 0.0, 1.0, 0.0
1415766, 5.539999961853027, 99.86199951171875, 124.4698486328125, 119.44491577148438, -10.872984886169434, 0.5424479842185974, 0.2712239921092987, 0.046424999833106995, 3.430060625076294, 20.162397384643555, 164.16989135742188, 8.30387020111084, 0.0, 0.0, 1.0, 0.0, 0.0, 0.0, 1.0, 0.0, 0.0, 0.0, 1.0, 0.0
1415776, 5.539999961853027, 99.86000061035156, 125.57054138183594, 119.41620635986328, -14.883356094360352, 0.07085999846458435, 0.04153800010681152, -0.026877999305725098, 3.825373649597168, 22.134687423706055, 165.1791229248047, 8.052652359008789, 0.0, 0.0, 1.0, 0.0, 0.0, 0.0, 1.0, 0.0, 0.0, 0.0, 1.0, 0.0
1415786, 5.539999961853027, 99.85700225830078, 121.6558837890625, 128.39886474609375, -6.5898332595825195, -0.36896198987960815, -0.18081599473953247, -0.06352899968624115, 4.007130146026611, 23.70119285583496, 168.65577697753906, 8.159589767456055, 0.0, 0.0, 1.0, 0.0, 0.0, 0.0, 1.0, 0.0, 0.0, 0.0, 1.0, 0.0
1415796, 5.539999961853027, 99.84400177001953, 122.71351623535156, 131.75360107421875, -5.335993766784668, -0.7012730240821838, -0.7305939793586731, 0.15638099610805511, 4.746744155883789, 26.26853370666504, 172.432861328125, 7.502545356750488, 0.0, 0.0, 1.0, 0.0, 0.0, 0.0, 1.0, 0.0, 0.0, 0.0, 1.0, 0.0
1415806, 5.539999961853027, 99.83899688720703, 128.7386474609375, 126.72388458251953, -15.16092300415039, -0.7354810237884521, -0.8991929888725281, 0.2370149940252304, 5.554362773895264, 28.94875717163086, 173.8796844482422, 6.759567737579346, 0.0, 0.0, 1.0, 0.0, 0.0, 0.0, 1.0, 0.0, 0.0, 0.0, 1.0, 0.0
1415816, 5.539999961853027, 99.83699798583984, 130.9543914794922, 132.30873107910156, -10.801200866699219, -0.9236279726028442, -0.7428110241889954, 0.09040799736976624, 5.734140872955322, 30.476516723632812, 179.16827392578125, 6.986819744110107, 0.0, 0.0, 1.0, 0.0, 0.0, 0.0, 1.0, 0.0, 0.0, 0.0, 1.0, 0.0
1415826, 5.550000190734863, 99.83300018310547, 131.8445281982422, 135.4481201171875, -11.629117012023926, -0.679282009601593, -0.5277870297431946, 0.11728599667549133, 5.99390983581543, 32.172035217285156, 181.91029357910156, 7.094118595123291, 0.0, 0.0, 1.0, 0.0, 0.0, 0.0, 1.0, 0.0, 0.0, 0.0, 1.0, 0.0
1415836, 5.550000190734863, 99.82499694824219, 133.19407653808594, 136.1611785888672, -11.657831192016602, -0.7159330248832703, -0.6963859796524048, 0.10995499789714813, 6.783947944641113, 34.809635162353516, 183.9954071044922, 6.4674763679504395, 0.0, 0.0, 1.0, 0.0, 0.0, 0.0, 1.0, 0.0, 0.0, 0.0, 1.0, 0.0
1415846, 5.539999961853027, 99.81199645996094, 136.5057373046875, 139.54940795898438, -11.787043571472168, -0.7330380082130432, -0.8967490196228027, 0.07818999886512756, 7.765725135803223, 37.76263427734375, 189.55438232421875, 5.646030426025391, 0.0, 0.0, 1.0, 0.0, 0.0, 0.0, 1.0, 0.0, 0.0, 0.0, 1.0, 0.0
1415856, 5.539999961853027, 99.80500030517578, 137.1757354736328, 140.1332550048828, -12.026326179504395, -0.7843499779701233, -1.0995570421218872, 0.048868998885154724, 8.301005363464355, 39.922279357910156, 190.63856506347656, 5.448470592498779, 0.0, 0.0, 1.0, 0.0, 0.0, 0.0, 1.0, 0.0, 0.0, 0.0, 1.0, 0.0
1415866, 5.550000190734863, 99.7959976196289, 135.79747009277344, 136.33824157714844, -12.30867862701416, -0.796567976474762, -1.3219120502471924, 0.024434000253677368, 8.783466339111328, 41.96003723144531, 187.1244659423828, 5.304503917694092, 0.0, 0.0, 1.0, 0.0, 0.0, 0.0, 1.0, 0.0, 0.0, 0.0, 1.0, 0.0
1415876, 5.539999961853027, 99.78700256347656, 137.05609130859375, 139.2479248046875, -11.60040283203125, -0.8943060040473938, -1.5369360446929932, -0.0048859999515116215, 9.449557304382324, 44.25394058227539, 190.37103271484375, 5.0053791999816895, 0.0, 0.0, 1.0, 0.0, 0.0, 0.0, 1.0, 0.0, 0.0, 0.0, 1.0, 0.0
1415886, 5.550000190734863, 99.7770004272461, 135.0174102783203, 137.9222869873047, -11.648260116577148, -1.0091489553451538, -1.9645419120788574, -0.058642998337745667, 10.48222541809082, 47.192501068115234, 188.8314666748047, 4.166018486022949, 0.0, 0.0, 1.0, 0.0, 0.0, 0.0, 1.0, 0.0, 0.0, 0.0, 1.0, 0.0
1415896, 5.550000190734863, 99.7699966430664, 134.71112060546875, 137.86007690429688, -11.590831756591797, -1.097113013267517, -2.1722359657287598, -0.09285099804401398, 11.062572479248047, 49.257232666015625, 188.71238708496094, 4.024543285369873, 0.0, 0.0, 1.0, 0.0, 0.0, 0.0, 1.0, 0.0, 0.0, 0.0, 1.0, 0.0
1415906, 5.550000190734863, 99.75599670410156, 134.81640625, 137.67344665527344, -11.184052467346191, -1.1728609800338745, -2.3652689456939697, -0.1270589977502823, 11.98624324798584, 51.895904541015625, 189.24581909179688, 3.433583974838257, 0.0, 0.0, 1.0, 0.0, 0.0, 0.0, 1.0, 0.0, 0.0, 0.0, 1.0, 0.0
1415916, 5.550000190734863, 99.74400329589844, 134.299560546875, 137.32887268066406, -10.916055679321289, -1.265712022781372, -2.5680761337280273, -0.15393799543380737, 13.070219993591309, 54.77855682373047, 189.42124938964844, 2.649029016494751, 0.5877628326416016, -0.057525634765625, 0.9996688365936279, 0.0017077906522899866, -0.025677749887108803, -0.0013837306760251522, 0.9999192357063293, 0.012633226811885834, 0.02569725178182125, -0.01259351335465908, 0.9995904564857483, 0.0
1415926, 5.550000190734863, 99.73500061035156, 135.66346740722656, 138.51092529296875, -10.652846336364746, -1.3732240200042725, -2.8050918579101562, -0.17348499596118927, 13.922749519348145, 57.19904708862305, 191.61480712890625, 2.255722761154175, 0.7743978500366211, -0.609130859375, 0.9985504150390625, 0.0039910520426929, -0.053677212446928024, -0.0025775651447474957, 0.9996487498283386, 0.026377186179161072, 0.053763631731271744, -0.02620059624314308, 0.9982098937034607, 0.0
1415936, 5.539999961853027, 99.72100067138672, 137.4820098876953, 139.8221893310547, -10.236495018005371, -1.5076149702072144, -3.0225601196289062, -0.1954759955406189, 14.966411590576172, 59.938804626464844, 194.45016479492188, 1.633476734161377, 0.41158580780029297, 1.8002471923828125, 0.9964617490768433, 0.006980900187045336, -0.08375805616378784, -0.0035117221996188164, 0.999132513999939, 0.04149565100669861, 0.08397507667541504, -0.04105469584465027, 0.9956217408180237, 0.0
1415946, 5.550000190734863, 99.71800231933594, 134.10813903808594, 136.90773010253906, -9.657431602478027, -1.6517789363861084, -3.215593099594116, -0.21258099377155304, 15.454086303710938, 61.66686248779297, 189.88320922851562, 1.7539159059524536, 0.6441173553466797, 2.2131195068359375, 0.9932359457015991, 0.010745138861238956, -0.11561600118875504, -0.00404007826000452, 0.9983041286468506, 0.05807356908917427, 0.11604395508766174, -0.05721366032958031, 0.9915948510169983, 0.0
1415956, 5.550000190734863, 99.70600128173828, 135.36196899414062, 137.7021484375, -8.523234367370605, -1.9718719720840454, -3.6041040420532227, -0.21746699512004852, 16.288902282714844, 63.937583923339844, 191.6074981689453, 1.477953314781189, -0.16927242279052734, -4.4465179443359375, 0.9883992075920105, 0.015530912205576897, -0.15108275413513184, -0.0037660852540284395, 0.9969581961631775, 0.07784715294837952, 0.1518322229385376, -0.0763750746846199, 0.9854511022567749, 0.0
1415966, 5.539999961853027, 99.7020034790039, 135.31411743164062, 137.45330810546875, -7.838886260986328, -2.1575748920440674, -3.7800331115722656, -0.2101369947195053, 16.76105308532715, 65.53852844238281, 191.15255737304688, 1.723138689994812, 0.2908439636230469, 1.448333740234375, 0.981950044631958, 0.0212587621062994, -0.1879425048828125, -0.0025141965597867966, 0.9950427412986755, 0.09941688925027847, 0.18912430107593536, -0.09714990854263306, 0.9771355986595154, 0.0
1415976, 5.539999961853027, 99.68299865722656, 136.8646697998047, 139.133056640625, -7.379464149475098, -2.360382080078125, -3.9339709281921387, -0.1832589954137802, 18.011533737182617, 68.49368286132812, 194.23098754882812, 0.9288631677627563, -0.24645233154296875, -0.2097625732421875, 0.9737620949745178, 0.027933210134506226, -0.2258482575416565, 3.235228359699249e-05, 0.9924211502075195, 0.12288394570350647, 0.2275691032409668, -0.11966705322265625, 0.9663809537887573, 0.0
1415986, 5.539999961853027, 99.66300201416016, 134.5819091796875, 136.9125213623047, -6.436692237854004, -2.575407028198242, -4.051257133483887, -0.1270589977502823, 19.52507972717285, 71.89554595947266, 192.22860717773438, -0.25307130813598633, 0.8161907196044922, 2.2841644287109375, 0.9637886881828308, 0.0354733020067215, -0.2642979919910431, 0.00426194304600358, 0.9889371991157532, 0.14827419817447662, 0.26663386821746826, -0.14403143525123596, 0.9529749751091003, 0.0
1415996, 5.539999961853027, 99.65299987792969, 132.93565368652344, 135.12269592285156, -5.546562194824219, -2.7659969329833984, -4.166100025177002, -0.058642998337745667, 20.5368709564209, 74.32263946533203, 190.22250366210938, -0.6766642332077026, 1.1414737701416016, -3.1843109130859375, 0.9519400596618652, 0.04387863352894783, -0.3031257092952728, 0.010418396443128586, 0.984473466873169, 0.17522470653057098, 0.3061077892780304, -0.16996152698993683, 0.9367022514343262, 0.0
1416006, 5.550000190734863, 99.6449966430664, 133.93106079101562, 135.28062438964844, -5.1589250564575195, -2.988352060317993, -4.26139497756958, -0.007329999934881926, 21.300426483154297, 76.244140625, 191.0441131591797, -0.6827157139778137, 0.3947906494140625, -2.4297027587890625, 0.9381848573684692, 0.05358153209090233, -0.3419628143310547, 0.018421947956085205, 0.9788163304328918, 0.20391027629375458, 0.34564459323883057, -0.197605162858963, 0.9173232913017273, 0.0
1416016, 5.539999961853027, 99.62100219726562, 133.7922821044922, 134.90733337402344, -4.632503986358643, -3.242471933364868, -4.339584827423096, 0.03420799970626831, 22.908811569213867, 79.64532470703125, 191.85699462890625, -1.8576819896697998, 0.015077590942382812, 0.8155517578125, 0.9225226640701294, 0.0649687871336937, -0.3804357647895813, 0.028266068547964096, 0.9717085957527161, 0.23448610305786133, 0.38490691781044006, -0.22707216441631317, 0.894586443901062, 0.0
1416026, 5.539999961853027, 99.61599731445312, 133.6104278564453, 134.37612915039062, -3.9577279090881348, -3.7678160667419434, -4.505741119384766, 0.21258099377155304, 23.68402099609375, 81.5089340209961, 191.3152313232422, -1.820133924484253, 1.1658611297607422, -0.362091064453125, 0.9046564102172852, 0.07807895541191101, -0.418928325176239, 0.04167156293988228, 0.9621512293815613, 0.26931166648864746, 0.4240998923778534, -0.2610918879508972, 0.8671622276306152, 0.0
1416036, 5.550000190734863, 99.60800170898438, 133.40464782714844, 134.0746307373047, -3.5988049507141113, -4.019492149353027, -4.581488132476807, 0.3396410048007965, 24.35953140258789, 83.15625762939453, 190.751708984375, -1.6153337955474854, -0.04298210144042969, -0.50421142578125, 0.8848809003829956, 0.0926261693239212, -0.45651572942733765, 0.05808725208044052, 0.9504396319389343, 0.3054351806640625, 0.46218180656433105, -0.2967914640903473, 0.8356450796127319, 0.0
1416046, 5.559999942779541, 99.59400177001953, 133.5482177734375, 134.18948364257812, -3.0580270290374756, -4.28338623046875, -4.659678936004639, 0.4544830024242401, 25.373363494873047, 85.37164306640625, 191.17425537109375, -1.8551193475723267, -0.20789527893066406, -0.3587188720703125, 0.8632051944732666, 0.10897974669933319, -0.492950975894928, 0.07747771590948105, 0.9362608194351196, 0.3426561951637268, 0.49887311458587646, -0.33397525548934937, 0.799741268157959, 0.0
1416056, 5.539999961853027, 99.56800079345703, 133.7205047607422, 134.16078186035156, -2.646461009979248, -4.571713924407959, -4.715878009796143, 0.5668820142745972, 27.173803329467773, 88.95374298095703, 192.58665466308594, -3.165996551513672, 0.24077606201171875, 0.1827545166015625, 0.8397939205169678, 0.1274748593568802, -0.5277279615402222, 0.09980276226997375, 0.9192293286323547, 0.38086381554603577, 0.5336533784866333, -0.3725157380104065, 0.7592405080795288, 0.0
1416066, 5.550000190734863, 99.552001953125, 133.17971801757812, 133.35679626464844, -2.5411770343780518, -4.857599258422852, -4.779407978057861, 0.6890550255775452, 28.631534576416016, 91.87516021728516, 192.42832946777344, -3.95857310295105, 1.3063297271728516, 0.1015167236328125, 0.8147196769714355, 0.14819853007793427, -0.5605974793434143, 0.12520447373390198, 0.8990215063095093, 0.4196242392063141, 0.56617671251297, -0.412065327167511, 0.7138950228691101, 0.0
1416076, 5.559999942779541, 99.54299926757812, 133.5338592529297, 133.45729064941406, -2.536391019821167, -5.158143997192383, -4.847825050354004, 0.825888991355896, 29.567371368408203, 93.81275177001953, 192.75668334960938, -3.9654409885406494, 0.7785911560058594, -0.950897216796875, 0.7881012558937073, 0.17127725481987, -0.5912368297576904, 0.15382923185825348, 0.8752286434173584, 0.45859766006469727, 0.5960145592689514, -0.4523707926273346, 0.6634209156036377, 0.0
1416086, 5.550000190734863, 99.5270004272461, 133.49078369140625, 133.49557495117188, -2.885744094848633, -5.458690166473389, -4.948007106781006, 0.9724969863891602, 30.784513473510742, 96.22044372558594, 193.13043212890625, -4.342599868774414, 0.010406494140625, 0.3214874267578125, 0.7599164247512817, 0.19678710401058197, -0.6195177435874939, 0.18586620688438416, 0.8474985361099243, 0.4971925616264343, 0.622881293296814, -0.49297213554382324, 0.6074516177177429, 0.0
1416096, 5.550000190734863, 99.51200103759766, 132.89736938476562, 134.40005493164062, -4.283152103424072, -6.04267692565918, -5.189908981323242, 1.3023639917373657, 31.990001678466797, 98.56815338134766, 193.67503356933594, -4.667220115661621, 0.37548828125, -0.0034027099609375, 0.7298153042793274, 0.22529910504817963, -0.6454535126686096, 0.22353333234786987, 0.8135986328125, 0.5367406606674194, 0.6460670828819275, -0.5360018610954285, 0.5434145927429199, 0.0
1416106, 5.539999961853027, 99.5009994506836, 133.16058349609375, 135.57733154296875, -4.996212959289551, -6.3432230949401855, -5.385385990142822, 1.4538580179214478, 32.987457275390625, 100.50862884521484, 194.68516540527344, -4.658788681030273, 0.3256568908691406, 0.2199859619140625, 0.6979063749313354, 0.25659435987472534, -0.6686450839042664, 0.26501262187957764, 0.7748223543167114, 0.5739504098892212, 0.6653534173965454, -0.5777629613876343, 0.4727524220943451, 0.0
1416116, 5.550000190734863, 99.48400115966797, 131.82537841796875, 135.1753387451172, -5.536991119384766, -6.614447116851807, -5.602853775024414, 1.578474998474121, 34.25005340576172, 102.89710235595703, 193.81736755371094, -5.019362926483154, 0.002910614013671875, 1.0185699462890625, 0.6641695499420166, 0.2907339036464691, -0.6887327432632446, 0.3100302219390869, 0.7312046885490417, 0.6076358556747437, 0.6802647709846497, -0.6171011328697205, 0.3955073356628418, 0.0
1416126, 5.539999961853027, 99.47200012207031, 131.36117553710938, 136.0750274658203, -6.3553361892700195, -6.866123199462891, -5.81543493270874, 1.6688830852508545, 35.314186096191406, 104.88066864013672, 194.1575469970703, -5.0515875816345215, 0.3453788757324219, -1.2283782958984375, 0.6287675499916077, 0.32779788970947266, -0.7051241993904114, 0.3580484092235565, 0.6829043030738831, 0.6367443799972534, 0.6902556419372559, -0.6528327465057373, 0.31202030181884766, 0.0
1416136, 5.550000190734863, 99.447998046875, 130.523681640625, 136.71153259277344, -6.848258018493652, -7.088478088378906, -6.057337760925293, 1.720196008682251, 37.02169418334961, 107.9789810180664, 194.92555236816406, -5.961749076843262, 0.035503387451171875, 0.307952880859375, 0.5916268229484558, 0.36772528290748596, -0.7174649834632874, 0.4086594879627228, 0.6303386688232422, 0.6600537300109863, 0.6949641704559326, -0.6837043166160583, 0.22265055775642395, 0.0
1416146, 5.550000190734863, 99.4229965209961, 129.66705322265625, 137.4437255859375, -7.020541191101074, -7.303503036499023, -6.3261189460754395, 1.7226390838623047, 38.94780349731445, 111.41930389404297, 196.00973510742188, -7.133914470672607, 0.9046440124511719, -0.14215087890625, 0.5526546835899353, 0.4105621874332428, -0.7252666354179382, 0.46135401725769043, 0.5740232467651367, 0.6764984130859375, 0.6940643787384033, -0.7084745764732361, 0.12782186269760132, 0.0
1416156, 5.539999961853027, 99.39199829101562, 129.16934204101562, 138.3434295654297, -6.987040996551514, -7.486762046813965, -6.570465087890625, 1.671325922012329, 41.317779541015625, 115.60018157958984, 198.03515625, -8.875093460083008, 1.1661148071289062, -0.087982177734375, 0.512114405632019, 0.4560709595680237, -0.7278311848640442, 0.5152361989021301, 0.5148718953132629, 0.6851561069488525, 0.687219500541687, -0.7258831858634949, 0.028688818216323853, 0.0
1416166, 5.539999961853027, 99.36499786376953, 127.69537353515625, 140.25289916992188, -6.642475128173828, -7.8508381843566895, -6.98585319519043, 1.4709630012512207, 43.55747985839844, 119.49441528320312, 199.8429718017578, -10.37495231628418, 1.7367973327636719, 0.28424072265625, 0.46841442584991455, 0.5058826804161072, -0.7243415713310242, 0.5702765583992004, 0.4530699551105499, 0.6852098703384399, 0.6748130321502686, -0.7340371608734131, -0.0762687474489212, 0.0
1416176, 5.550000190734863, 99.33799743652344, 127.33165740966797, 140.39169311523438, -6.867400169372559, -8.082966804504395, -7.076261043548584, 1.3096940517425537, 45.76795959472656, 123.28507995605469, 201.0934295654297, -11.784468650817871, 1.4967842102050781, 0.307952880859375, 0.4244753122329712, 0.558147132396698, -0.712946355342865, 0.6240519285202026, 0.39016664028167725, 0.6770003437995911, 0.656033456325531, -0.7322854399681091, -0.1826968789100647, 0.0
1416186, 5.539999961853027, 99.31700134277344, 128.22178649902344, 141.35360717773438, -7.207180976867676, -8.334643363952637, -7.191103935241699, 1.1264350414276123, 47.63079833984375, 126.40094757080078, 203.25633239746094, -12.637762069702148, 1.4016494750976562, -0.1590576171875, 0.38045522570610046, 0.6122373342514038, -0.6931228637695312, 0.676225483417511, 0.3270900249481201, 0.6600995659828186, 0.6308509707450867, -0.7198455929756165, -0.2895675599575043, 0.0
1416196, 5.550000190734863, 99.2959976196289, 127.74800872802734, 141.32968139648438, -7.594818115234375, -8.622970581054688, -7.308390140533447, 0.9578359723091125, 49.37668228149414, 129.27427673339844, 203.56871032714844, -13.302075386047363, 0.8641357421875, 1.3096160888671875, 0.33692753314971924, 0.6673539876937866, -0.664167582988739, 0.7264174222946167, 0.26452919840812683, 0.6343045830726624, 0.598997175693512, -0.6961774826049805, -0.3956505358219147, 0.0
1416206, 5.550000190734863, 99.27300262451172, 128.130859375, 141.6646728515625, -8.403592109680176, -8.91862964630127, -7.442780017852783, 0.8161150217056274, 51.22892379760742, 132.28904724121094, 204.83969116210938, -14.065454483032227, 0.65753173828125, -0.3519287109375, 0.2945387065410614, 0.7223329544067383, -0.6256853342056274, 0.7742915153503418, 0.2033584713935852, 0.5992648005485535, 0.5601069331169128, -0.6609693765640259, -0.4993993937969208, 0.0
1416216, 5.539999961853027, 99.25299835205078, 128.3509979248047, 141.6981658935547, -9.006584167480469, -9.197184562683105, -7.560066223144531, 0.6841679811477661, 52.90986633300781, 134.95736694335938, 205.50396728515625, -14.55038070678711, 0.7657089233398438, 0.507598876953125, 0.2541235685348511, 0.7758259773254395, -0.5775079727172852, 0.8191710114479065, 0.14478890597820282, 0.554973304271698, 0.5141792297363281, -0.6141093969345093, -0.5987398624420166, 0.0
1416226, 5.550000190734863, 99.23600006103516, 127.21680450439453, 140.5783233642578, -9.475577354431152, -9.448861122131348, -7.8801589012146, 0.49846500158309937, 54.37046813964844, 137.1919708251953, 204.06893920898438, -14.709197044372559, 0.4848175048828125, 0.179351806640625, 0.21480432152748108, 0.8265623450279236, -0.5202441215515137, 0.8613749742507935, 0.09072768688201904, 0.49980199337005615, 0.46031785011291504, -0.5554847121238708, -0.692491352558136, 0.0
1416236, 5.550000190734863, 99.22000122070312, 126.72866821289062, 140.13804626464844, -11.72482967376709, -10.054839134216309, -8.124505043029785, 0.47158700227737427, 55.72270965576172, 139.17941284179688, 203.37791442871094, -14.674681663513184, 0.14043807983398438, -1.593841552734375, 0.1793140172958374, 0.8744930028915405, -0.45067575573921204, 0.8997021913528442, 0.03954745829105377, 0.4347095191478729, 0.39797329902648926, -0.4834233522415161, -0.7796916961669922, 0.0
1416246, 5.539999961853027, 99.2020034790039, 126.99188232421875, 139.80783081054688, -12.959527015686035, -10.26497745513916, -8.354190826416016, 0.4862479865550995, 57.161338806152344, 141.27854919433594, 203.38241577148438, -14.726541519165039, -0.041652679443359375, -0.6565093994140625, 0.14923115074634552, 0.9159843921661377, -0.372428297996521, 0.9330232739448547, -0.0057283975183963776, 0.3597709834575653, 0.3274109363555908, -0.4011731743812561, -0.8554894328117371, 0.0
1416256, 5.529999732971191, 99.18499755859375, 126.98709869384766, 139.79348754882812, -14.270792961120605, -10.494662284851074, -8.64007568359375, 0.5155699849128723, 58.57986831665039, 143.3044891357422, 203.3628387451172, -14.720497131347656, 0.05110931396484375, -0.04736328125, 0.12553776800632477, 0.9498809576034546, -0.28629809617996216, 0.960373044013977, -0.04396922141313553, 0.27522873878479004, 0.24884599447250366, -0.3095044195652008, -0.9177596569061279, 0.0
1416266, 5.550000190734863, 99.17900085449219, 126.89617156982422, 139.578125, -15.108281135559082, -10.726791381835938, -8.989489555358887, 0.5424479842185974, 59.308738708496094, 144.06491088867188, 202.1486053466797, -13.722843170166016, -0.006168365478515625, -0.0135345458984375, 0.10915735363960266, 0.975009560585022, -0.19349750876426697, 0.9806188344955444, -0.07376313209533691, 0.18151096999645233, 0.16270172595977783, -0.20956043899059296, -0.9641642570495605, 0.0
1416276, 5.550000190734863, 99.16799926757812, 127.1019515991211, 139.7982635498047, -15.75912857055664, -10.910050392150879, -9.346236228942871, 0.559552013874054, 60.1613883972168, 145.02035522460938, 201.6090545654297, -12.8821439743042, -0.9957389831542969, -0.216583251953125, 0.10110554844141006, 0.9902338981628418, -0.09599325060844421, 0.9923935532569885, -0.0935707688331604, 0.08000021427869797, 0.07023657858371735, -0.10335145145654678, -0.9921620488166809, 0.0
1416286, 5.559999942779541, 99.1510009765625, 126.73345947265625, 139.74562072753906, -15.663415908813477, -11.098196983337402, -9.722529411315918, 0.5742130279541016, 61.39146423339844, 146.62612915039062, 200.9923095703125, -12.563176155090332, -0.8337173461914062, 0.3011474609375, 0.10234739631414413, 0.9947390556335449, 0.004404142498970032, 0.9943810701370239, -0.10218806564807892, -0.02764667570590973, -0.02705133706331253, 0.0072090402245521545, -0.9996080994606018, 0.0
1416296, 5.550000190734863, 99.12699890136719, 126.78609466552734, 139.70733642578125, -15.936198234558105, -11.271682739257812, -10.384705543518066, 0.5522220134735107, 63.130775451660156, 149.1048126220703, 201.3705596923828, -12.931256294250488, -0.320892333984375, -0.2977752685546875, 0.1135232001543045, 0.9879617094993591, 0.10509183257818222, 0.9850039482116699, -0.0980846956372261, -0.14194035530090332, -0.12992386519908905, 0.11962944269180298, -0.9842808246612549, 0.0
1416306, 5.550000190734863, 99.10800170898438, 126.52288818359375, 139.74562072753906, -15.43370532989502, -11.655305862426758, -10.71701717376709, 0.5204570293426514, 64.7530517578125, 151.33445739746094, 201.38287353515625, -13.10264778137207, 0.36660003662109375, 0.010162353515625, 0.13532571494579315, 0.9691540002822876, 0.20597976446151733, 0.9631191492080688, -0.07987230271100998, -0.25694823265075684, -0.23257043957710266, 0.2331547886133194, -0.9442192316055298, 0.0
1416316, 5.539999961853027, 99.08200073242188, 127.25030517578125, 139.95619201660156, -15.122637748718262, -11.853225708007812, -10.995572090148926, 0.47158700227737427, 66.72267150878906, 154.14356994628906, 202.66342163085938, -13.719928741455078, 0.16888427734375, -0.1590728759765625, 0.16784697771072388, 0.9382463097572327, 0.3025251030921936, 0.9283431768417358, -0.047187089920043945, -0.36871784925460815, -0.3316729664802551, 0.34273526072502136, -0.8789344429969788, 0.0
1416326, 5.539999961853027, 99.05799865722656, 131.413818359375, 143.5406494140625, -15.04606819152832, -12.058477401733398, -11.274126052856445, 0.4349350035190582, 68.65758514404297, 156.85345458984375, 208.61766052246094, -14.195531845092773, 0.6219711303710938, 0.66326904296875, 0.21107496321201324, 0.8954731822013855, 0.39188700914382935, 0.8806344270706177, -0.0002288036048412323, -0.4737969934940338, -0.4241828918457031, 0.44511574506759644, -0.7886323928833008, 0.0
1416336, 5.539999961853027, 99.03700256347656, 127.18330383300781, 138.68321228027344, -14.620145797729492, -12.332143783569336, -11.501367568969727, 0.42271798849105835, 70.45637512207031, 159.33143615722656, 202.57090759277344, -14.574920654296875, 0.5343551635742188, 5.4786376953125, 0.2645367980003357, 0.8411053419113159, 0.47176527976989746, 0.820695161819458, 0.06055029481649399, -0.5681493878364563, -0.5064389705657959, 0.5374717116355896, -0.674272894859314, 0.0
1416346, 5.539999961853027, 99.01300048828125, 126.05389404296875, 136.6588897705078, -14.519646644592285, -12.5642728805542, -11.748157501220703, 0.43737900257110596, 72.35598754882812, 161.88502502441406, 200.78036499023438, -15.014410018920898, 0.30641937255859375, -6.4261474609375, 0.327585369348526, 0.7761938571929932, 0.5387126803398132, 0.7494769096374512, 0.13370126485824585, -0.6483895778656006, -0.5753024816513062, 0.6161553859710693, -0.5379403829574585, 0.0
1416356, 5.550000190734863, 98.98999786376953, 124.56077575683594, 134.32827758789062, -14.227723121643066, -12.825722694396973, -11.968069076538086, 0.4886919856071472, 74.23673248291016, 164.34170532226562, 198.4593048095703, -15.397136688232422, 0.41283416748046875, -2.23004150390625, 0.39893075823783875, 0.7018634676933289, 0.5901206135749817, 0.6687793135643005, 0.21759699285030365, -0.7109053730964661, -0.627366840839386, 0.6782622337341309, -0.38258522748947144, 0.0
1416366, 5.550000190734863, 98.9729995727539, 124.76655578613281, 133.03614807128906, -14.270792961120605, -13.089616775512695, -12.495856285095215, 0.6401860117912292, 75.7559585571289, 166.08724975585938, 197.511962890625, -15.217936515808105, 0.3510589599609375, -2.70379638671875, 0.47910135984420776, 0.6195384860038757, 0.6217993497848511, 0.5786561965942383, 0.3097350597381592, -0.7544679045677185, -0.6600147485733032, 0.7212743163108826, -0.21010491251945496, 0.0
1416376, 5.539999961853027, 98.94999694824219, 120.51211547851562, 127.78630065917969, -14.050654411315918, -13.649169921875, -12.757306098937988, 0.7525849938392639, 77.53813934326172, 168.26097106933594, 191.0223388671875, -15.448858261108398, -0.18695068359375, -0.7681427001953125, 0.5637601017951965, 0.5296986699104309, 0.6337147355079651, 0.483635812997818, 0.41025683283805847, -0.7731664776802063, -0.6695307493209839, 0.7423672676086426, -0.024894505739212036, 0.0
1416386, 5.550000190734863, 98.93399810791016, 119.07164001464844, 126.14482116699219, -14.055438995361328, -13.905733108520508, -13.02364444732666, 0.8698710203170776, 78.96419525146484, 169.6968994140625, 188.4947967529297, -15.100614547729492, 0.15532684326171875, -6.720550537109375, 0.6499869227409363, 0.4368729591369629, 0.6218195557594299, 0.3871476352214813, 0.513744056224823, -0.765626847743988, -0.6539373993873596, 0.7383831143379211, 0.16479283571243286, 0.0
1416396, 5.550000190734863, 98.91400146484375, 118.2341537475586, 124.35498809814453, -13.931013107299805, -14.196504592895508, -13.299755096435547, 0.9749400019645691, 80.53419494628906, 171.3387451171875, 186.46678161621094, -14.930381774902344, -0.3709259033203125, -2.1793060302734375, 0.7343211770057678, 0.34419381618499756, 0.585067093372345, 0.2928588092327118, 0.6169255971908569, -0.7305048704147339, -0.6123777031898499, 0.7077668905258179, 0.3522214889526367, 0.0059564802795648575
1416406, 5.539999961853027, 98.88400268554688, 116.32946014404297, 123.11550903320312, -14.136795043945312, -14.413972854614258, -13.556318283081055, 1.1142170429229736, 82.74236297607422, 174.0686798095703, 184.94790649414062, -15.634798049926758, -0.19011688232421875, -1.8577880859375, 0.8130418062210083, 0.2554401159286499, 0.5231767296791077, 0.2051834613084793, 0.7152409553527832, -0.6680800318717957, -0.5448514223098755, 0.650523841381073, 0.5291087627410889, 0.017666859552264214
1416416, 5.539999961853027, 98.86299896240234, 113.36714935302734, 120.29676055908203, -14.084153175354004, -14.611892700195312, -13.805550575256348, 1.2119560241699219, 84.57068634033203, 176.05787658691406, 181.01541137695312, -15.790111541748047, 0.6766891479492188, -2.223297119140625, 0.8821841478347778, 0.17474986612796783, 0.4372803568840027, 0.12798509001731873, 0.8046664595603943, -0.5797693729400635, -0.4531790614128113, 0.5674282908439636, 0.6874986290931702, 0.02619975619018078
1416426, 5.539999961853027, 98.83999633789062, 110.08898162841797, 119.13863372802734, -14.08893871307373, -14.773160934448242, -14.059671401977539, 1.2974770069122314, 86.44366455078125, 178.05223083496094, 178.0581512451172, -15.969765663146973, 0.1092681884765625, -4.0878143310546875, 0.9381189942359924, 0.10607249289751053, 0.32966935634613037, 0.06500181555747986, 0.8810878396034241, -0.46846532821655273, -0.3401585519313812, 0.46090489625930786, 0.8196703195571899, 0.03475477546453476
1416436, 5.550000190734863, 98.81800079345703, 108.04072570800781, 117.65509033203125, -13.911870002746582, -15.037055015563965, -14.541032791137695, 1.2852599620819092, 88.25082397460938, 179.86441040039062, 175.61346435546875, -16.022432327270508, 0.1440582275390625, -3.1369171142578125, 0.9779402017593384, 0.053619492799043655, 0.2018873393535614, 0.017966628074645996, 0.9413204789161682, -0.33703669905662537, -0.20811204612255096, 0.33322852849960327, 0.9195915460586548, 0.04252833500504494
1416446, 5.539999961853027, 98.77899932861328, 104.04949951171875, 115.6068344116211, -10.37527847290039, -15.176332473754883, -14.658319473266602, 1.2217299938201904, 91.0337142944336, 183.35916137695312, 172.75613403320312, -17.4356689453125, 0.02471923828125, -2.4973602294921875, 0.9978320598602295, 0.021399782970547676, 0.06224063038825989, -0.009118407964706421, 0.9814942479133606, -0.1912764459848404, -0.06518177688121796, 0.1902938038110733, 0.9795611500740051, 0.05751948431134224
1416456, 5.539999961853027, 98.75499725341797, 101.74281311035156, 112.3621597290039, -9.121438980102539, -15.410904884338379, -14.760944366455078, 1.163087010383606, 93.20874786376953, 185.6798858642578, 169.3404083251953, -17.945343017578125, 1.3597183227539062, -4.27056884765625, 0.9964860081672668, 0.01136859506368637, -0.08298847079277039, -0.014428626745939255, 0.9992347955703735, -0.03636600077152252, 0.0825117826461792, 0.037435248494148254, 0.9958869814872742, 0.06747450679540634
1416466, 5.550000190734863, 98.72699737548828, 98.25886535644531, 109.6917724609375, -8.757730484008789, -15.630815505981445, -14.812256813049316, 1.1410959959030151, 95.46368408203125, 188.0678253173828, 165.5826873779297, -18.539392471313477, 0.463897705078125, -3.9253997802734375, 0.973665714263916, 0.024379808455705643, -0.22667454183101654, 0.00324495742097497, 0.9926833510398865, 0.12070605903863907, 0.22795897722244263, -0.11826317757368088, 0.9664620757102966, 0.0777178630232811
1416476, 5.550000190734863, 98.70500183105469, 97.52666473388672, 107.4903793334961, -7.886743068695068, -15.84339714050293, -14.81470012664795, 1.1166609525680542, 97.3826904296875, 189.7772216796875, 163.57351684570312, -18.60459327697754, 0.5431747436523438, -4.351776123046875, 0.930395245552063, 0.06048094108700752, -0.36153459548950195, 0.043439656496047974, 0.9611519575119019, 0.2725810110569, 0.36397573351860046, -0.2693132162094116, 0.8916234970092773, 0.08505051583051682
1416486, 5.539999961853027, 98.677001953125, 96.68917846679688, 105.5904769897461, -8.001598358154297, -16.099960327148438, -14.858681678771973, 1.145982027053833, 99.5635757446289, 191.90298461914062, 162.0443878173828, -19.011070251464844, 0.04189300537109375, -2.074371337890625, 0.8685498237609863, 0.11824043840169907, -0.48129093647003174, 0.10525809228420258, 0.9049584269523621, 0.41227591037750244, 0.4842959940433502, -0.4087420701980591, 0.7735552787780762, 0.09416922926902771
1416496, 5.550000190734863, 98.66500091552734, 94.80841827392578, 103.80542755126953, -8.298308372497559, -16.33697509765625, -14.939316749572754, 1.2559380531311035, 100.87245178222656, 192.4214630126953, 158.61558532714844, -18.174419403076172, 0.38323211669921875, -1.93560791015625, 0.7909090518951416, 0.19481584429740906, -0.5800950527191162, 0.18701407313346863, 0.825664222240448, 0.5322638750076294, 0.5826570391654968, -0.5294583439826965, 0.6165915131568909, 0.09639330953359604
1416506, 5.539999961853027, 98.62999725341797, 93.22915649414062, 101.14939880371094, -11.107481956481934, -16.720598220825195, -15.220314979553223, 1.4660760164260864, 103.28947448730469, 194.87181091308594, 156.33297729492188, -18.886608123779297, -0.8618011474609375, -2.5921478271484375, 0.700162410736084, 0.2874004542827606, -0.6535856127738953, 0.28696978092193604, 0.7249338030815125, 0.6261947154998779, 0.6537747383117676, -0.6259973645210266, 0.42509573698043823, 0.10690436512231827
1416516, 5.539999961853027, 98.6050033569336, 88.01758575439453, 100.44112396240234, -12.155537605285645, -16.83544158935547, -15.401130676269531, 1.5296059846878052, 105.42261505126953, 196.74990844726562, 152.44093322753906, -19.18052101135254, 0.6758651733398438, -2.9947967529296875, 0.6009232401847839, 0.3915543556213379, -0.6968335509300232, 0.39869749546051025, 0.6087653636932373, 0.685890257358551, 0.6927711963653564, -0.6899932026863098, 0.20970910787582397, 0.1149606853723526
1416526, 5.539999961853027, 98.58599853515625, 84.92605590820312, 99.48877716064453, -11.964113235473633, -16.864763259887695, -15.584389686584473, 1.5051710605621338, 107.12641143798828, 197.7907257080078, 149.2335205078125, -18.832550048828125, 0.24617767333984375, -4.1859588623046875, 0.4977816939353943, 0.5021379590034485, -0.7071572542190552, 0.5159652233123779, 0.48392385244369507, 0.7068224549293518, 0.697132408618927, -0.7167118191719055, -0.018197625875473022, 0.11942539364099503
1416536, 5.539999961853027, 98.55699920654297, 82.8969497680664, 97.51708984375, -11.341979026794434, -16.97960662841797, -15.740772247314453, 1.3903279304504395, 109.30341339111328, 199.6246337890625, 146.70436096191406, -19.132375717163086, -0.378204345703125, -2.8594512939453125, 0.3956949710845947, 0.6143922209739685, -0.6826040148735046, 0.6320947408676147, 0.357010155916214, 0.6877502799034119, 0.6662446856498718, -0.7036096453666687, -0.2470872402191162, 0.12729215621948242
1416546, 5.550000190734863, 98.53600311279297, 81.04011535644531, 96.2967529296875, -10.758130073547363, -17.03091812133789, -15.845840454101562, 1.2754859924316406, 111.1456069946289, 200.8040313720703, 144.3267822265625, -18.930694580078125, 0.26712799072265625, -2.8289947509765625, 0.3002719283103943, 0.7216552495956421, -0.6237395405769348, 0.7407084107398987, 0.2355966418981552, 0.6291626691818237, 0.6009891629219055, -0.6509288549423218, -0.4637932777404785, 0.1323513239622116
1416556, 5.539999961853027, 98.51100158691406, 79.71449279785156, 94.44949340820312, -10.925626754760742, -17.17508316040039, -15.894709587097168, 1.1655299663543701, 113.10710906982422, 202.1514892578125, 142.03297424316406, -18.880451202392578, -0.2249603271484375, -2.1759033203125, 0.21698616445064545, 0.8183290958404541, -0.5322170853614807, 0.835734486579895, 0.1260092407464981, 0.5344810485839844, 0.5044453144073486, -0.5607669353485107, -0.6565636992454529, 0.13813140988349915
1416566, 5.539999961853027, 98.48699951171875, 78.81957244873047, 92.79844665527344, -11.456833839416504, -17.370559692382812, -15.968013763427734, 1.089782953262329, 115.06077575683594, 203.438232421875, 140.1478271484375, -18.795589447021484, -0.07492828369140625, -2.2435684204101562, 0.15064290165901184, 0.8986821174621582, -0.41191965341567993, 0.9122344851493835, 0.03420533239841461, 0.4082384705543518, 0.38096609711647034, -0.4372652769088745, -0.8146559596061707, 0.1436510533094406
1416576, 5.539999961853027, 98.46099853515625, 77.37431335449219, 88.00322723388672, -13.50508975982666, -17.763957977294922, -16.234350204467773, 1.0409140586853027, 117.12415313720703, 204.87889099121094, 135.81512451171875, -18.87556266784668, -0.1044769287109375, -1.8002853393554688, 0.10495772957801819, 0.9579356908798218, -0.2671023905277252, 0.9663286805152893, -0.03478967398405075, 0.2549489736557007, 0.23493199050426483, -0.2848673462867737, -0.9293320178985596, 0.1498309224843979
1416586, 5.539999961853027, 98.43699645996094, 75.61319732666016, 85.73961639404297, -14.304292678833008, -17.90812110900879, -16.432270050048828, 1.089782953262329, 119.11244201660156, 206.1171112060547, 132.90673828125, -18.813085556030273, 0.03064727783203125, -4.412681579589844, 0.08469171822071075, 0.990595281124115, -0.1074654757976532, 0.9936406016349792, -0.0759320855140686, 0.08314533531665802, 0.0742029994726181, -0.11382357776165009, -0.9907262325286865, 0.15820448100566864
1416596, 5.539999961853027, 98.4209976196289, 73.1629409790039, 85.24191284179688, -15.773486137390137, -18.081607818603516, -16.659513473510742, 1.1826339960098267, 120.6053695678711, 206.42152404785156, 130.0406036376953, -18.03148651123047, -0.0937957763671875, -2.845916748046875, 0.09233938902616501, 0.9940367341041565, 0.05800849199295044, 0.9914491176605225, -0.08639159053564072, -0.09780433028936386, -0.09220987558364868, 0.0665438249707222, -0.9935137629508972, 0.16233102977275848
1416606, 5.539999961853027, 98.40599822998047, 71.68896484375, 84.32785034179688, -14.873785018920898, -18.201335906982422, -16.938066482543945, 1.1972949504852295, 121.89120483398438, 206.322998046875, 127.27202606201172, -16.951499938964844, -0.8013534545898438, -2.08453369140625, 0.1276908814907074, 0.9674091935157776, 0.21866664290428162, 0.9585893154144287, -0.0637897253036499, -0.27755701541900635, -0.2545626759529114, 0.24505311250686646, -0.9354930520057678, 0.1643446683883667
1416616, 5.539999961853027, 98.37200164794922, 70.4686279296875, 82.2173843383789, -15.232707977294922, -18.33572769165039, -17.138431549072266, 1.1704169511795044, 124.23833465576172, 208.0903778076172, 125.33158874511719, -17.36629295349121, -1.09405517578125, -1.6885910034179688, 0.18898409605026245, 0.9118087887763977, 0.3645412027835846, 0.8960060477256775, -0.008211098611354828, -0.44396644830703735, -0.40181928873062134, 0.41053372621536255, -0.8185375332832336, 0.17631268501281738
1416626, 5.539999961853027, 98.35399627685547, 68.88457489013672, 80.97311401367188, -17.079967498779297, -18.47256088256836, -17.282594680786133, 1.1508690118789673, 125.95747375488281, 208.68772888183594, 122.8387222290039, -16.87335777282715, 0.3868560791015625, -2.3552322387695312, 0.27296462655067444, 0.8301631808280945, 0.4861275851726532, 0.8069645762443542, 0.07751550525426865, -0.5854911804199219, -0.5237355828285217, 0.5521060228347778, -0.6487528681755066, 0.1819099485874176
1416636, 5.539999961853027, 98.322998046875, 67.1330337524414, 80.56633758544922, -16.467405319213867, -18.5849609375, -17.50494956970215, 1.1215479373931885, 128.2412567138672, 210.25611877441406, 121.59662628173828, -17.157426834106445, -0.51300048828125, -1.9999313354492188, 0.3750949501991272, 0.7274267673492432, 0.5745908617973328, 0.6959517598152161, 0.18846572935581207, -0.6929157376289368, -0.6123360395431519, 0.6597965955734253, -0.4355609714984894, 0.19280071556568146
1416646, 5.539999961853027, 98.3010025024414, 66.55875396728516, 77.48916625976562, -15.677772521972656, -18.687585830688477, -17.67354965209961, 0.9676100015640259, 130.16893005371094, 211.1495819091797, 118.79012298583984, -16.932886123657227, 0.265899658203125, -1.5261688232421875, 0.48807471990585327, 0.6106787323951721, 0.6235825419425964, 0.5695059299468994, 0.31858229637145996, -0.757739245891571, -0.6613974571228027, 0.7249671220779419, -0.19229280948638916, 0.20016208291053772
1416656, 5.539999961853027, 98.28099822998047, 66.03233337402344, 75.65148162841797, -16.05583953857422, -18.839080810546875, -17.754182815551758, 0.9920439720153809, 131.87074279785156, 211.59671020507812, 116.55522918701172, -16.369672775268555, -0.252227783203125, -2.5819625854492188, 0.6054468154907227, 0.48652029037475586, 0.6298672556877136, 0.43663662672042847, 0.45862555503845215, -0.7739583253860474, -0.6654195189476013, 0.7436134219169617, 0.06524105370044708, 0.20519284904003143
1416666, 5.539999961853027, 98.26699829101562, 65.53941345214844, 73.76114654541016, -16.7976131439209, -19.061433792114258, -17.954547882080078, 1.0506869554519653, 133.1599884033203, 211.2783660888672, 113.72325134277344, -15.222907066345215, -0.5793304443359375, -1.6716842651367188, 0.7202160358428955, 0.362467497587204, 0.5915291905403137, 0.30556321144104004, 0.5997533798217773, -0.739545464515686, -0.622832715511322, 0.7133816480636597, 0.32119542360305786, 0.20611628890037537
1416676, 5.550000190734863, 98.24600219726562, 65.17569732666016, 72.28238677978516, -17.00339698791504, -19.181163787841797, -18.140249252319336, 1.1362090110778809, 134.74241638183594, 211.46017456054688, 111.68448638916016, -14.486974716186523, -1.1605072021484375, -1.685211181640625, 0.8241503238677979, 0.24746188521385193, 0.5094501972198486, 0.1858414262533188, 0.7315406799316406, -0.6559813618659973, -0.5350138545036316, 0.635303795337677, 0.5569108724594116, 0.20979808270931244
1416686, 5.529999732971191, 98.22000122070312, 62.80680847167969, 73.03851318359375, -17.520246505737305, -19.335102081298828, -18.301517486572266, 1.2339470386505127, 136.71456909179688, 212.3131561279297, 110.34956359863281, -14.292430877685547, -0.7472076416015625, -1.3028335571289062, 0.9092723727226257, 0.14940457046031952, 0.38846203684806824, 0.08664549142122269, 0.8449485301971436, -0.5277829766273499, -0.40708357095718384, 0.5135565400123596, 0.7553430199623108, 0.21719835698604584
1416696, 5.539999961853027, 98.19999694824219, 63.54379653930664, 71.40182495117188, -16.874183654785156, -19.4499454498291, -18.531204223632812, 1.2192859649658203, 138.437255859375, 212.69308471679688, 109.1521224975586, -13.731175422668457, -0.20635986328125, -1.140380859375, 0.9688283801078796, 0.07685524970293045, 0.23551127314567566, 0.014452680945396423, 0.931506872177124, -0.36343687772750854, -0.24731241166591644, 0.3555113971233368, 0.9013593196868896, 0.2220759093761444
1416706, 5.539999961853027, 98.16699981689453, 62.9599494934082, 71.34439849853516, -15.75912857055664, -19.616100311279297, -18.694915771484375, 1.238834023475647, 140.82513427734375, 214.23997497558594, 109.0614013671875, -14.093903541564941, -0.565887451171875, -0.6361846923828125, 0.9974753260612488, 0.03528933227062225, 0.061631277203559875, -0.024112951010465622, 0.984542191028595, -0.1734810322523117, -0.06680069863796234, 0.17155665159225464, 0.9829071164131165, 0.23347419500350952
1416716, 5.539999961853027, 98.14800262451172, 61.58646774291992, 71.17211151123047, -13.289735794067383, -19.76270866394043, -18.792654037475586, 1.2632689476013184, 142.62245178222656, 214.70582580566406, 107.48982238769531, -13.615363121032715, 0.3561248779296875, -0.45345306396484375, 0.9923442006111145, 0.028469325974583626, -0.12018044292926788, -0.0252291988581419, 0.9992784261703491, 0.02839745581150055, 0.12090203166007996, -0.025148198008537292, 0.9923460483551025, 0.23896373808383942
1416726, 5.539999961853027, 98.125, 61.1796875, 70.11927032470703, -13.332806587219238, -19.875106811523438, -18.777992248535156, 1.2754859924316406, 144.46278381347656, 215.22445678710938, 106.03229522705078, -13.189933776855469, -0.4886016845703125, -1.0930404663085938, 0.9536250233650208, 0.05754166841506958, -0.29544734954833984, 0.011554453521966934, 0.9738355875015259, 0.22696037590503693, 0.3007766008377075, -0.21984896063804626, 0.9280087947845459, 0.24481433629989624
1416736, 5.529999732971191, 98.08799743652344, 60.72505187988281, 69.9804916381836, -14.079367637634277, -20.11212158203125, -18.86107063293457, 1.3316850662231445, 147.13931274414062, 217.20980834960938, 106.34394836425781, -13.921191215515137, -0.4350433349609375, -1.0320968627929688, 0.8838952779769897, 0.12084349989891052, -0.451803982257843, 0.08446414768695831, 0.9089101552963257, 0.40834841132164, 0.45999518036842346, -0.3990985155105591, 0.793174147605896, 0.2589971423149109
1416746, 5.519999980926514, 98.06099700927734, 61.490753173828125, 69.99484252929688, -15.390633583068848, -20.307598114013672, -18.985687255859375, 1.3927719593048096, 149.4538116455078, 218.51759338378906, 107.08129119873047, -14.106959342956543, 0.7234344482421875, -0.4196014404296875, 0.787910521030426, 0.2142827808856964, -0.5773047208786011, 0.18880131840705872, 0.8082876205444336, 0.5576964020729065, 0.5861326456069946, -0.5484107732772827, 0.5964012742042542, 0.26950547099113464
1416756, 5.529999732971191, 98.04399871826172, 61.002620697021484, 70.84668731689453, -14.974283218383789, -20.34425163269043, -19.093198776245117, 1.458745002746582, 151.1176300048828, 218.64962768554688, 106.59822082519531, -13.366708755493164, 0.1910858154296875, 0.55157470703125, 0.6728221774101257, 0.3304188847541809, -0.6619172692298889, 0.3168754577636719, 0.6797785758972168, 0.661431074142456, 0.6685060262680054, -0.6547708511352539, 0.352668434381485, 0.27341216802597046
1416766, 5.539999961853027, 98.01100158691406, 55.843692779541016, 68.44908142089844, -14.538789749145508, -20.41755485534668, -19.154285430908203, 1.4905099868774414, 153.4993896484375, 220.0541534423828, 101.58043670654297, -13.6921968460083, -0.73419189453125, 0.25717926025390625, 0.5476230978965759, 0.46101343631744385, -0.6982667446136475, 0.4583112895488739, 0.5329318642616272, 0.711290717124939, 0.7000426650047302, -0.7095427513122559, 0.08055815100669861, 0.2846423387527466
1416776, 5.539999961853027, 97.98600006103516, 45.908695220947266, 58.88736343383789, -14.682358741760254, -20.551944732666016, -19.19338035583496, 1.4416409730911255, 155.6251983642578, 220.9276885986328, 87.83612823486328, -13.73413372039795, 0.2647705078125, -5.3432769775390625, 0.42189472913742065, 0.5967877507209778, -0.6825321316719055, 0.6015808582305908, 0.3789536654949188, 0.7032031416893005, 0.6783105731010437, -0.7072759866714478, -0.19913740456104279, 0.2929946184158325
1416786, 5.539999961853027, 97.95999908447266, 25.110279083251953, 36.658042907714844, -11.992826461791992, -20.615474700927734, -19.298450469970703, 1.2730419635772705, 157.74708557128906, 221.64247131347656, 57.62164306640625, -13.94482421875, -0.11126708984375, -13.786262512207031, 0.3042502999305725, 0.7268313765525818, -0.6157506704330444, 0.7356469035148621, 0.23138532042503357, 0.6366195678710938, 0.6051902770996094, -0.6466668844223022, -0.4642919898033142, 0.30067071318626404
1416796, 5.529999732971191, 97.94400024414062, 20.252849578857422, 30.431917190551758, -11.21276569366455, -20.705883026123047, -19.34487533569336, 1.2266169786453247, 159.2618865966797, 220.9630126953125, 48.88542938232422, -13.0458984375, -0.1279296875, -30.425212860107422, 0.20506519079208374, 0.8401724100112915, -0.5020553469657898, 0.850031852722168, 0.10139614343643188, 0.516879677772522, 0.4851740598678589, -0.5327572226524353, -0.6933802366256714, 0.3006245493888855
1416806, 5.550000190734863, 97.91699981689453, 16.41954803466797, 26.129621505737305, -10.537989616394043, -20.798734664916992, -19.398632049560547, 1.2192859649658203, 161.24884033203125, 221.05062866210938, 42.88166809082031, -12.794867515563965, -0.982025146484375, -7.8372955322265625, 0.13269531726837158, 0.9272960424423218, -0.35002121329307556, 0.9356057047843933, -0.0006222352385520935, 0.3530459403991699, 0.32715994119644165, -0.3743295967578888, -0.8676658272743225, 0.3051529824733734
1416816, 5.529999732971191, 97.89700317382812, 13.203595161437988, 22.31067657470703, -10.815558433532715, -20.86959457397461, -19.396188735961914, 1.2363899946212769, 162.9846954345703, 220.62960815429688, 37.2951774597168, -12.182805061340332, -0.3137969970703125, -5.752738952636719, 0.09361864626407623, 0.9806902408599854, -0.1717061698436737, 0.9851371645927429, -0.06629921495914459, 0.15845857560634613, 0.14401449263095856, -0.18398909270763397, -0.9723210334777832, 0.30679893493652344
1416826, 5.529999732971191, 97.88099670410156, 10.198208808898926, 18.54916000366211, -12.375678062438965, -20.930681228637695, -19.420623779296875, 1.2608250379562378, 164.39874267578125, 219.58718872070312, 31.451862335205078, -11.12441635131836, -0.6646270751953125, -4.974433898925781, 0.09117081761360168, 0.9956650733947754, 0.018435880541801453, 0.994594156742096, -0.0901176929473877, -0.05158741772174835, -0.04970264434814453, 0.02303914725780487, -0.9984984993934631, 0.30483126640319824
1416836, 5.539999961853027, 97.87300109863281, 5.900700092315674, 16.00798225402832, -13.50508975982666, -21.06262969970703, -19.53057861328125, 1.2974770069122314, 165.26612854003906, 217.5310516357422, 24.808025360107422, -9.316259384155273, -1.1069183349609375, -4.784931182861328, 0.12603279948234558, 0.9705005288124084, 0.2055366188287735, 0.9628095626831055, -0.06975392997264862, -0.2610214948654175, -0.23898476362228394, 0.23078949749469757, -0.9431982040405273, 0.29691827297210693
1416846, 5.519999980926514, 97.85299682617188, 1.832901954650879, 11.72004508972168, -13.00259780883789, -21.067514419555664, -19.620986938476562, 1.2510509490966797, 166.66831970214844, 216.39895629882812, 17.881412506103516, -8.298041343688965, -1.85400390625, -4.835685729980469, 0.1950044333934784, 0.9071307182312012, 0.3729451596736908, 0.8918651938438416, -0.005785282701253891, -0.45226427912712097, -0.40810543298721313, 0.42080989480018616, -0.8101662397384644, 0.2944597601890564
1416856, 5.539999961853027, 97.83899688720703, -7.4895339012146, 2.723031997680664, -12.52881908416748, -20.97466468811035, -19.73827362060547, 1.089782953262329, 167.88516235351562, 214.88803100585938, 3.744791030883789, -7.115216255187988, -1.0793914794921875, -5.9084014892578125, 0.2917880117893219, 0.8116543292999268, 0.5060415267944336, 0.7868459820747375, 0.09711062908172607, -0.6094610691070557, -0.5438138842582703, 0.5760097503662109, -0.6103110313415527, 0.28980115056037903
1416866, 5.529999732971191, 97.82599639892578, -9.94456958770752, -1.220339059829712, -11.59561824798584, -21.072402954101562, -19.83112335205078, 1.014035940170288, 168.9615936279297, 213.013671875, -2.230802059173584, -5.663990020751953, -1.3214874267578125, -12.953811645507812, 0.40945035219192505, 0.6912270188331604, 0.5954465866088867, 0.6558831930160522, 0.23065084218978882, -0.7187609672546387, -0.6341674327850342, 0.6848398447036743, -0.35892394185066223, 0.28309425711631775
1416876, 5.539999961853027, 97.81400299072266, -12.20818042755127, -5.087140083312988, -11.102696418762207, -21.18480110168457, -19.83601188659668, 0.9431750178337097, 169.9497833251953, 210.95620727539062, -8.115880966186523, -4.113765716552734, -1.4951629638671875, -4.524372100830078, 0.5381521582603455, 0.5556292533874512, 0.6337738633155823, 0.5101213455200195, 0.3838652968406677, -0.7696905136108398, -0.6709465980529785, 0.7375116348266602, -0.07686036825180054, 0.27528929710388184
1416886, 5.510000228881836, 97.79299926757812, -12.882955551147461, -7.82452917098999, -10.691130638122559, -21.15303611755371, -19.916645050048828, 0.9309579730033875, 171.4561767578125, 209.8007354736328, -11.345580101013184, -3.296830892562866, -1.5916290283203125, -4.334860324859619, 0.6680902242660522, 0.4168458878993988, 0.6163569092750549, 0.3611980080604553, 0.5425201654434204, -0.7584244608879089, -0.6505324244499207, 0.7293222546577454, 0.21188849210739136, 0.2728201448917389
1416896, 5.539999961853027, 97.78700256347656, -14.328221321105957, -11.423335075378418, -11.318050384521484, -21.29720115661621, -19.97284507751465, 0.9602789878845215, 172.21766662597656, 207.30613708496094, -16.742826461791992, -1.4662829637527466, -0.840179443359375, -2.4127674102783203, 0.7883140444755554, 0.2852611541748047, 0.545149564743042, 0.22204266488552094, 0.6944195032119751, -0.6844548583030701, -0.5738111138343811, 0.6606111526489258, 0.48408037424087524, 0.2623957395553589
1416906, 5.510000228881836, 97.77799987792969, -16.62533187866211, -12.978669166564941, -12.423534393310547, -21.270322799682617, -20.01194190979004, 1.0238089561462402, 172.9609832763672, 204.77012634277344, -21.29698944091797, 0.3637888431549072, -1.862213134765625, -3.5667028427124023, 0.8884687423706055, 0.17270293831825256, 0.4252035617828369, 0.10499323904514313, 0.8254345655441284, -0.5546477437019348, -0.4467672109603882, 0.5374300479888916, 0.7152398824691772, 0.2517017722129822
1416916, 5.510000228881836, 97.76399993896484, -18.807584762573242, -13.189237594604492, -11.365906715393066, -21.23122787475586, -20.01194190979004, 1.0922260284423828, 173.97088623046875, 202.7093505859375, -24.421504974365234, 1.796323537826538, -1.852386474609375, -2.7240943908691406, 0.9596537351608276, 0.08856391161680222, 0.2668749690055847, 0.020397379994392395, 0.9246768951416016, -0.3802059292793274, -0.2804458737373352, 0.3703089952468872, 0.8855627775192261, 0.2437891811132431
1416926, 5.510000228881836, 97.75599670410156, -21.985254287719727, -12.729816436767578, -11.26540756225586, -21.00642967224121, -19.960628509521484, 1.1924079656600952, 174.71560668945312, 200.18165588378906, -28.115758895874023, 3.5684876441955566, -1.4451141357421875, -1.6919822692871094, 0.9956818222999573, 0.03973407670855522, 0.0839049220085144, -0.024257604032754898, 0.9837319254875183, -0.17799736559391022, -0.08961285650730133, 0.1751929223537445, 0.9804474115371704, 0.2330639511346817
1416936, 5.519999980926514, 97.73799896240234, -23.19123649597168, -12.777671813964844, -10.327422142028809, -20.930681228637695, -19.90931510925293, 1.1484260559082031, 175.97535705566406, 198.5803680419922, -30.029388427734375, 4.595517158508301, -1.78582763671875, -1.9220924377441406, 0.9936639666557312, 0.030786558985710144, -0.10809806734323502, -0.027028808370232582, 0.998984158039093, 0.03605733811855316, 0.10909786820411682, -0.032907500863075256, 0.9934861660003662, 0.2277703434228897
1416946, 5.519999980926514, 97.7249984741211, -23.085952758789062, -12.289535522460938, -9.47079086303711, -20.95755958557129, -19.86777687072754, 1.1484260559082031, 177.06382751464844, 196.68336486816406, -30.868614196777344, 5.8543572425842285, -1.0324249267578125, -0.8866004943847656, 0.9540555477142334, 0.06186564266681671, -0.2931753098964691, 0.01248210109770298, 0.9693970084190369, 0.24518084526062012, 0.2993709444999695, -0.23757585883140564, 0.9240859150886536, 0.22068308293819427
1416956, 5.519999980926514, 97.7239990234375, -25.23470687866211, -15.55813217163086, -6.934399127960205, -20.999099731445312, -19.662525177001953, 1.0824520587921143, 177.43890380859375, 193.54037475585938, -36.88279724121094, 8.037904739379883, -1.2487335205078125, 0.4196147918701172, 0.8810856938362122, 0.13090172410011292, -0.45448198914527893, 0.08972828090190887, 0.897219181060791, 0.43237316608428955, 0.46436771750450134, -0.4217378497123718, 0.7787810564041138, 0.20614948868751526
1416966, 5.519999980926514, 97.7249984741211, -26.675186157226562, -17.199607849121094, -7.795815944671631, -20.803621292114258, -19.589221954345703, 1.1728609800338745, 177.46307373046875, 189.76834106445312, -41.710880279541016, 10.686710357666016, -2.21661376953125, -3.8306427001953125, 0.7811204791069031, 0.22948600351810455, -0.5806790590286255, 0.19957134127616882, 0.7894569635391235, 0.5804558992385864, 0.5916268825531006, -0.5692929625511169, 0.5708619356155396, 0.1878841072320938
1416976, 5.519999980926514, 97.72200012207031, -27.225534439086914, -17.529817581176758, -7.556532859802246, -20.80606460571289, -19.49881362915039, 1.2754859924316406, 177.64132690429688, 186.2903289794922, -44.7308235168457, 13.084005355834961, -2.661529541015625, -2.179279327392578, 0.6628803014755249, 0.35032349824905396, -0.661713182926178, 0.33251094818115234, 0.6541091203689575, 0.6793951392173767, 0.6708399653434753, -0.6703845262527466, 0.3171095848083496, 0.17132489383220673
1416986, 5.529999732971191, 97.72599792480469, -27.594030380249023, -18.678373336791992, -6.805187225341797, -20.715656280517578, -19.525691986083984, 1.3023639917373657, 177.45484924316406, 182.1942901611328, -48.65753173828125, 15.93799877166748, -2.393829345703125, -0.622650146484375, 0.5352237820625305, 0.4836708903312683, -0.6925309896469116, 0.4776899814605713, 0.5028539896011353, 0.7203819751739502, 0.6966691017150879, -0.7163805961608887, 0.03809472918510437, 0.15110139548778534
1416996, 5.519999980926514, 97.71499633789062, -31.5517578125, -22.291534423828125, -6.226123809814453, -20.810951232910156, -19.437726974487305, 1.2754859924316406, 178.0238494873047, 179.47885131835938, -55.70197677612305, 17.62901496887207, -2.853546142578125, -1.0727176666259766, 0.40904301404953003, 0.6202548146247864, -0.6693048477172852, 0.6223076581954956, 0.3468361794948578, 0.7017391324043274, 0.6673955917358398, -0.7035549879074097, -0.24411825835704803, 0.13891620934009552
1417006, 5.510000228881836, 97.71199798583984, -31.40818977355957, -21.3248348236084, -6.326622009277344, -20.762083053588867, -19.330215454101562, 1.2534949779510498, 178.35342407226562, 176.31527709960938, -56.97301483154297, 19.68512725830078, -1.7431182861328125, -5.353435516357422, 0.2946584224700928, 0.7479082345962524, -0.5948200821876526, 0.7548418641090393, 0.19953584671020508, 0.624819278717041, 0.5859948396682739, -0.6331033706665039, -0.505757212638855, 0.1241074651479721
1417016, 5.5, 97.697998046875, -30.398418426513672, -21.46840476989746, -6.321836948394775, -20.688779830932617, -19.25691032409668, 1.2070690393447876, 179.2474822998047, 174.20159912109375, -57.5800666809082, 20.904678344726562, -2.0384979248046875, 0.7850761413574219, 0.20061832666397095, 0.8563711643218994, -0.4757961630821228, 0.8651605844497681, 0.0729844868183136, 0.4961555004119873, 0.4596185088157654, -0.5111780762672424, -0.7262561321258545, 0.11535020917654037
1417026, 5.529999732971191, 97.70500183105469, -29.82892608642578, -22.00918197631836, -6.747758865356445, -20.737648010253906, -19.203155517578125, 1.2119560241699219, 179.0878143310547, 170.241455078125, -60.2182731628418, 23.563186645507812, -1.2074737548828125, 0.6124992370605469, 0.1345343291759491, 0.9374825358390808, -0.3209803104400635, 0.9449638724327087, -0.023887142539024353, 0.3263014256954193, 0.29823416471481323, -0.3472137451171875, -0.8891003131866455, 0.09578555822372437
1417036, 5.510000228881836, 97.697998046875, -29.59442901611328, -22.191036224365234, -8.073383331298828, -20.75475311279297, -19.203155517578125, 1.2534949779510498, 179.43780517578125, 167.23414611816406, -62.07060623168945, 25.45274543762207, -2.6467742919921875, 0.02030181884765625, 0.10179577767848969, 0.9844632744789124, -0.14307676255702972, 0.9882220029830933, -0.08355191349983215, 0.1282040774822235, 0.11425752937793732, -0.15444248914718628, -0.9813730120658875, 0.0817069336771965
1417046, 5.5, 97.69300079345703, -29.374290466308594, -22.238893508911133, -8.910871505737305, -20.72298812866211, -19.220258712768555, 1.2950339317321777, 179.81964111328125, 164.3188018798828, -63.75250244140625, 27.256460189819336, -1.8809661865234375, 0.03722381591796875, 0.10501979291439056, 0.9935320019721985, 0.04319937527179718, 0.991430401802063, -0.10120608657598495, -0.08260100334882736, -0.07769494503736496, 0.05150356888771057, -0.995646059513092, 0.06810677796602249
1417056, 5.510000228881836, 97.68599700927734, -30.09213638305664, -20.894126892089844, -9.150153160095215, -20.68389129638672, -19.266685485839844, 1.3219120502471924, 180.32000732421875, 161.65005493164062, -64.90959930419922, 28.856855392456055, -1.7945556640625, 0.12181854248046875, 0.14384308457374573, 0.9641827940940857, 0.22284919023513794, 0.9541497230529785, -0.07539349049329758, -0.28967899084091187, -0.2625023126602173, 0.2542994022369385, -0.9308193325996399, 0.055874161422252655
1417066, 5.510000228881836, 97.67400360107422, -28.752155303955078, -21.990039825439453, -5.73320198059082, -20.520179748535156, -19.244693756103516, 1.2412769794464111, 181.16285705566406, 159.62782287597656, -65.81748962402344, 29.93733024597168, -1.5885467529296875, 0.44329833984375, 0.21394246816635132, 0.8996291160583496, 0.38065358996391296, 0.8794700503349304, -0.007788307964801788, -0.4758903682231903, -0.42516031861305237, 0.4365861415863037, -0.7928628921508789, 0.04730312526226044
1417076, 5.519999980926514, 97.66000366210938, -28.043880462646484, -22.640886306762695, -6.029911994934082, -20.4810848236084, -19.16650390625, 1.258381962776184, 182.202392578125, 157.9832000732422, -66.55215454101562, 30.71260643005371, -1.073883056640625, 0.17258834838867188, 0.31024742126464844, 0.8049547672271729, 0.5057621598243713, 0.7736887335777283, 0.09534626454114914, -0.6263502836227417, -0.5524063110351562, 0.5856255292892456, -0.5932033061981201, 0.04085556045174599
1417086, 5.519999980926514, 97.64700317382812, -28.512874603271484, -22.65045738220215, -7.508677005767822, -20.49085807800293, -19.129850387573242, 1.3219120502471924, 183.2565460205078, 156.38665771484375, -67.6180648803711, 31.44011878967285, -0.7714691162109375, 0.04061126708984375, 0.4255595803260803, 0.6872034668922424, 0.5887710452079773, 0.6452379822731018, 0.22575098276138306, -0.7298659086227417, -0.6344821453094482, 0.6904983520507812, -0.3473392128944397, 0.0346376858651638
1417096, 5.510000228881836, 97.63099670410156, -28.98186683654785, -21.59761619567871, -9.489933967590332, -20.493301391601562, -19.18360710144043, 1.3781110048294067, 184.46908569335938, 155.09033203125, -67.69693756103516, 31.93182945251465, -0.728118896484375, -0.3383979797363281, 0.5511461496353149, 0.5555077195167542, 0.6226155757904053, 0.5036945343017578, 0.37338948249816895, -0.7790198922157288, -0.6652297377586365, 0.7429612874984741, -0.07401403784751892, 0.030112341046333313
1417106, 5.510000228881836, 97.62100219726562, -29.23072052001953, -21.104694366455078, -8.695516586303711, -20.35402488708496, -19.217815399169922, 1.348789930343628, 185.40219116210938, 153.31825256347656, -68.38644409179688, 32.793922424316406, -0.4850006103515625, 0.412841796875, 0.6764186024665833, 0.4215537905693054, 0.6039465069770813, 0.3599244952201843, 0.5262234807014465, -0.7704175114631653, -0.6425833106040955, 0.7384992837905884, 0.20421971380710602, 0.022788839414715767
1417116, 5.510000228881836, 97.60099792480469, -29.52264404296875, -20.559131622314453, -8.049454689025879, -20.28805160522461, -19.22270393371582, 1.282815933227539, 186.80702209472656, 152.41171264648438, -68.38399505615234, 32.970829010009766, -0.8564453125, 0.17258453369140625, 0.7912585735321045, 0.2957943081855774, 0.5351791977882385, 0.22495655715465546, 0.6730256080627441, -0.7045786380767822, -0.5685997009277344, 0.6778953671455383, 0.4659962058067322, 0.020421352237462997
1417126, 5.5, 97.58699798583984, -29.49393081665039, -20.19542121887207, -8.03988265991211, -20.226964950561523, -19.18360710144043, 1.1997389793395996, 188.01414489746094, 151.16896057128906, -68.54861450195312, 33.412925720214844, -0.1741485595703125, 0.179351806640625, 0.8866374492645264, 0.18820759654045105, 0.42243704199790955, 0.1091892421245575, 0.8024265170097351, -0.5866765379905701, -0.44939184188842773, 0.5662944316864014, 0.6909108757972717, 0.01606697589159012
1417136, 5.510000228881836, 97.57099914550781, -29.068008422851562, -20.463417053222656, -9.322436332702637, -20.11945343017578, -19.027225494384766, 1.045801043510437, 189.28775024414062, 150.06524658203125, -68.76669311523438, 33.742679595947266, -0.437103271484375, 0.2774810791015625, 0.9550777077674866, 0.10781719535589218, 0.2760491967201233, 0.021159082651138306, 0.9042890071868896, -0.4263961911201477, -0.2956013083457947, 0.41308194398880005, 0.8613846302032471, 0.012481537647545338
1417146, 5.5, 97.55999755859375, -28.264020919799805, -21.19083595275879, -7.690530776977539, -20.131669998168945, -19.024782180786133, 0.9920439720153809, 190.28347778320312, 148.48374938964844, -69.41522979736328, 34.44535827636719, -0.32708740234375, 0.11167526245117188, 0.9925390481948853, 0.059352532029151917, 0.10651125013828278, -0.032835952937603, 0.9713680744171143, -0.23529952764511108, -0.1174275279045105, 0.23004615306854248, 0.9660692811012268, 0.006078455597162247
1417156, 5.5, 97.53500366210938, -28.015167236328125, -21.693328857421875, -7.360321998596191, -20.124340057373047, -18.97347068786621, 0.9871580004692078, 192.02322387695312, 148.25010681152344, -69.23086547851562, 34.08163833618164, -0.69903564453125, 0.054141998291015625, 0.9962893128395081, 0.046057745814323425, -0.07271476089954376, -0.04820961505174637, 0.9984412789344788, -0.02812245488166809, 0.07130579650402069, 0.03152334690093994, 0.9969564080238342, 0.0074914549477398396
1417166, 5.5, 97.5260009765625, -27.546173095703125, -21.81775665283203, -7.709673881530762, -20.124340057373047, -18.931930541992188, 1.0238089561462402, 193.0382537841797, 146.73077392578125, -69.63953399658203, 34.73395538330078, 0.3601531982421875, -0.179351806640625, 0.9663135409355164, 0.0684349313378334, -0.24810464680194855, -0.023594526574015617, 0.9834964275360107, 0.1793825328350067, 0.2562856078147888, -0.1674860715866089, 0.9519802331924438, 0.001368936151266098
1417176, 5.5, 97.50900268554688, -27.445674896240234, -22.1671085357666, -7.953742027282715, -20.10234832763672, -18.8830623626709, 1.0677919387817383, 194.29881286621094, 145.67210388183594, -70.09809112548828, 35.01655197143555, -0.64678955078125, 0.24365234375, 0.9051541686058044, 0.12457983940839767, -0.40641942620277405, 0.038987964391708374, 0.9277305006980896, 0.3712087869644165, 0.423292338848114, -0.3518468141555786, 0.8348817825317383, 0.0
1417186, 5.510000228881836, 97.4990005493164, -27.120250701904297, -22.133609771728516, -8.336592674255371, -20.0461483001709, -18.895278930664062, 1.1166609525680542, 195.22093200683594, 144.02452087402344, -70.59066009521484, 35.762908935546875, -0.2833251953125, -0.17596435546875, 0.8173794150352478, 0.209995836019516, -0.5364639759063721, 0.13482028245925903, 0.8356146812438965, 0.5325143337249756, 0.5601024031639099, -0.5075926184654236, 0.6547023057937622, 0.0
1417196, 5.510000228881836, 97.48600006103516, -26.971895217895508, -22.2867488861084, -8.451449394226074, -19.992393493652344, -18.878175735473633, 1.1582000255584717, 196.2390899658203, 142.57260131835938, -71.17996978759766, 36.34884262084961, -0.7403106689453125, 0.25379180908203125, 0.7097976207733154, 0.31825971603393555, -0.6284100413322449, 0.25630009174346924, 0.714278519153595, 0.6512421369552612, 0.6561233401298523, -0.6233116984367371, 0.4254229962825775, 0.0
1417206, 5.5, 97.46499633789062, -27.742385864257812, -20.91326904296875, -7.7144598960876465, -19.91908836364746, -18.890392303466797, 1.1972949504852295, 197.74453735351562, 142.0092315673828, -70.64175415039062, 36.237003326416016, -0.58343505859375, -0.003376007080078125, 0.590387225151062, 0.4411308765411377, -0.6759050488471985, 0.39424487948417664, 0.5731148719787598, 0.7184081077575684, 0.7042825818061829, -0.6906110644340515, 0.16444604098796844, 0.0
1417216, 5.5, 97.44300079345703, -27.708885192871094, -20.889341354370117, -7.618746757507324, -19.850671768188477, -18.853740692138672, 1.1533130407333374, 199.4574737548828, 141.8310546875, -70.18668365478516, 35.82254409790039, 0.1160888671875, 0.4263763427734375, 0.4680594801902771, 0.5699263215065002, -0.675355851650238, 0.5373837351799011, 0.4231259822845459, 0.7295087575912476, 0.7015262246131897, -0.7043787240982056, -0.10822097957134247, 0.0
1417226, 5.510000228881836, 97.4260025024414, -27.766313552856445, -20.994625091552734, -7.743173122406006, -19.879993438720703, -18.80487060546875, 1.1215479373931885, 200.916259765625, 141.2075958251953, -70.2388687133789, 35.75967025756836, 0.413116455078125, 0.040607452392578125, 0.3520212769508362, 0.6954836249351501, -0.626406192779541, 0.6751238107681274, 0.27487194538116455, 0.6845824718475342, 0.6482968330383301, -0.6638893485069275, -0.3727766275405884, 0.0
1417236, 5.510000228881836, 97.40799713134766, -27.84766960144043, -20.56391716003418, -7.551747798919678, -19.865333557128906, -18.81220054626465, 1.1019999980926514, 202.38323974609375, 140.60931396484375, -69.9128189086914, 35.68064880371094, 0.0613250732421875, -0.11505889892578125, 0.25058645009994507, 0.8080247640609741, -0.5332013368606567, 0.7977478504180908, 0.1396811157464981, 0.5865896940231323, 0.5484566688537598, -0.5723516345024109, -0.6095975637435913, 0.0
1417246, 5.5, 97.39399719238281, -27.416961669921875, -21.023338317871094, -7.618746757507324, -19.855558395385742, -18.79754066467285, 1.072679042816162, 203.61160278320312, 139.59963989257812, -70.17682647705078, 35.92435073852539, 0.0814208984375, 0.24702835083007812, 0.17128509283065796, 0.8992160558700562, -0.40258312225341797, 0.8960427045822144, 0.02769879251718521, 0.4431028664112091, 0.4095958471298218, -0.43662863969802856, -0.8009912967681885, 0.0
1417256, 5.5, 97.3740005493164, -27.340391159057617, -20.745771408081055, -7.791029930114746, -19.850671768188477, -18.726680755615234, 1.0653480291366577, 205.1188507080078, 139.10243225097656, -69.7685317993164, 35.76647186279297, -0.2428741455078125, -0.02030181884765625, 0.12031473964452744, 0.9622362852096558, -0.24418622255325317, 0.9626693725585938, -0.05300840362906456, 0.2654387950897217, 0.24247057735919952, -0.26700693368911743, -0.9326927661895752, 0.0
1417266, 5.5, 97.36599731445312, -27.244678497314453, -20.659629821777344, -8.350950241088867, -19.833568572998047, -18.697359085083008, 1.0555739402770996, 206.0085906982422, 137.5175018310547, -70.33827209472656, 36.46480178833008, 0.15997314453125, 0.2504158020019531, 0.10113060474395752, 0.9924072623252869, -0.07001170516014099, 0.9931061267852783, -0.09650802612304688, 0.06653080880641937, 0.059268683195114136, -0.07625758647918701, -0.9953253269195557, 0.0
1417276, 5.489999771118164, 97.34300231933594, -25.804197311401367, -21.521045684814453, -8.867799758911133, -19.718725204467773, -18.61672592163086, 1.0384700298309326, 207.58946228027344, 137.18701171875, -69.64048767089844, 36.17647171020508, -0.693878173828125, 0.12858963012695312, 0.11485373228788376, 0.9876953959465027, 0.10614878684282303, 0.9853646159172058, -0.09972525388002396, -0.1382439136505127, -0.12595738470554352, 0.12047278881072998, -0.984693706035614, 0.0
1417286, 5.510000228881836, 97.34200286865234, -25.90469741821289, -21.406190872192383, -9.719644546508789, -19.67474365234375, -18.641159057617188, 1.0677919387817383, 208.1053466796875, 134.97113037109375, -70.82393646240234, 37.37007522583008, 0.2916259765625, 0.4094581604003906, 0.1607097089290619, 0.9488003253936768, 0.2719403803348541, 0.9401101469993591, -0.06323466449975967, -0.33495402336120605, -0.3006086051464081, 0.30948394536972046, -0.9021389484405518, 0.0
1417296, 5.5, 97.31900024414062, -25.866411209106445, -20.89891242980957, -8.2217378616333, -19.61121368408203, -18.685142517089844, 1.0824520587921143, 209.5619659423828, 134.45973205566406, -70.28784942626953, 37.21976089477539, -1.188323974609375, 0.01015472412109375, 0.23523405194282532, 0.8788856267929077, 0.41500139236450195, 0.8604422807693481, 0.010257452726364136, -0.509444534778595, -0.4520004391670227, 0.4769230782985687, -0.7538172602653503, 0.0
1417306, 5.510000228881836, 97.30000305175781, -25.574487686157227, -20.70748519897461, -6.719045162200928, -19.52080535888672, -18.65093231201172, 1.0677919387817383, 211.09030151367188, 134.09059143066406, -69.68773651123047, 36.96143341064453, 0.1539459228515625, 0.3857765197753906, 0.33235666155815125, 0.7835519909858704, 0.5249633193016052, 0.7524685263633728, 0.11528296768665314, -0.6484602689743042, -0.5686217546463013, 0.610538125038147, -0.5512830018997192, 0.0
1417316, 5.489999771118164, 97.27999877929688, -25.01456642150879, -21.17647933959961, -5.905486106872559, -19.550127029418945, -18.589847564697266, 1.0604610443115234, 212.6813507080078, 133.84573364257812, -69.26910400390625, 36.60709762573242, 0.2610015869140625, 0.3417854309082031, 0.4448566734790802, 0.6692724823951721, 0.59512859582901, 0.6243628263473511, 0.24464672803878784, -0.7418347597122192, -0.6420859098434448, 0.7015859484672546, -0.3090360760688782, 0.0
1417326, 5.5, 97.26599884033203, -24.425933837890625, -21.391834259033203, -5.61834716796875, -19.52080535888672, -18.477447509765625, 1.1044440269470215, 213.93736267089844, 133.01226806640625, -69.11866760253906, 36.720611572265625, 0.353515625, 0.06429672241210938, 0.5645868182182312, 0.544327974319458, 0.6204433441162109, 0.4861440360546112, 0.3881758153438568, -0.782932460308075, -0.6670131087303162, 0.7436578273773193, -0.04546287655830383, 0.0
1417336, 5.5, 97.24600219726562, -24.62214469909668, -21.281763076782227, -5.8432722091674805, -19.48171043395996, -18.379709243774414, 1.1679739952087402, 215.4585418701172, 132.66773986816406, -68.90660095214844, 36.447635650634766, -0.1100921630859375, 0.263946533203125, 0.6830119490623474, 0.41749536991119385, 0.5993274450302124, 0.34802547097206116, 0.5353842973709106, -0.7695723176002502, -0.6421633958816528, 0.7342079877853394, 0.22037479281425476, 0.0
1417346, 5.5, 97.23500061035156, -24.435504913330078, -20.659629821777344, -6.388835906982422, -19.396188735961914, -18.301517486572266, 1.2754859924316406, 216.52357482910156, 131.5184783935547, -68.70255279541016, 36.815467834472656, 0.2711181640625, -0.0609130859375, 0.7918666005134583, 0.29756200313568115, 0.5332965850830078, 0.22015327215194702, 0.6754510402679443, -0.7037741541862488, -0.5696322917938232, 0.6747019290924072, 0.4693577289581299, 0.0
1417356, 5.5, 97.21700286865234, -25.095922470092773, -19.68814468383789, -6.551548004150391, -19.357093811035156, -18.267309188842773, 1.3023639917373657, 217.88340759277344, 130.91714477539062, -68.41773986816406, 36.7506103515625, -0.359893798828125, 0.5718822479248047, 0.8833290338516235, 0.19310486316680908, 0.42713165283203125, 0.11087048053741455, 0.7992831468582153, -0.5906383991241455, -0.4554544985294342, 0.5690840482711792, 0.6846202611923218, 0.0
1417366, 5.489999771118164, 97.1969985961914, -25.5697021484375, -18.405590057373047, -6.3314080238342285, -19.27157211303711, -18.242874145507812, 1.2852599620819092, 219.40936279296875, 130.62542724609375, -67.54395294189453, 36.4487190246582, 0.0670166015625, 0.21995925903320312, 0.9509547352790833, 0.11191537976264954, 0.28837689757347107, 0.027373962104320526, 0.8981530070304871, -0.4388294816017151, -0.308118611574173, 0.4252007007598877, 0.8510391116142273, 0.0
1417376, 5.489999771118164, 97.18099975585938, -25.39263343811035, -18.515661239624023, -5.781059265136719, -19.200712203979492, -18.194005966186523, 1.2168430089950562, 220.79257202148438, 130.09315490722656, -67.38465118408203, 36.3367919921875, 0.3069305419921875, 0.5718975067138672, 0.9900485277175903, 0.059906162321567535, 0.1273438036441803, -0.025094792246818542, 0.9655227661132812, -0.25910526514053345, -0.1384756714105606, 0.25333088636398315, 0.9574174284934998, 0.0
1417386, 5.489999771118164, 97.15499877929688, -25.39263343811035, -18.175880432128906, -5.3168511390686035, -19.14206886291504, -18.081607818603516, 1.163087010383606, 222.6784210205078, 130.4678497314453, -66.32347869873047, 35.51588439941406, 0.111968994140625, 0.04737663269042969, 0.9982286691665649, 0.04024481773376465, -0.043831199407577515, -0.04300706833600998, 0.9970210194587708, -0.0640229731798172, 0.041123658418655396, 0.065794438123703, 0.9969855546951294, 0.0
1417396, 5.5, 97.13800048828125, -25.239492416381836, -18.142379760742188, -5.254638195037842, -19.115190505981445, -17.988754272460938, 1.1142170429229736, 224.2044677734375, 130.205078125, -65.87842559814453, 35.20280838012695, 0.8200225830078125, 0.2402629852294922, 0.9754893779754639, 0.053908612579107285, -0.21334408223628998, -0.025614606216549873, 0.990754246711731, 0.13322685658931732, 0.21855323016643524, -0.12449680268764496, 0.9678508639335632, 0.0
1417406, 5.489999771118164, 97.11699676513672, -25.009780883789062, -18.27159309387207, -5.627918243408203, -19.06876564025879, -17.878799438476562, 1.0848959684371948, 225.8568115234375, 130.176513671875, -65.31314086914062, 34.70858383178711, 0.3131866455078125, 0.1319751739501953, 0.9239271879196167, 0.09942259639501572, -0.3694254159927368, 0.025616973638534546, 0.9473956227302551, 0.31903737783432007, 0.38171106576919556, -0.3042309284210205, 0.8727774024009705, 0.0
1417416, 5.489999771118164, 97.10199737548828, -24.50250244140625, -18.429519653320312, -5.168496131896973, -19.034555435180664, -17.739521026611328, 1.094670057296753, 227.19241333007812, 129.5895233154297, -65.01691436767578, 34.659385681152344, 0.4928741455078125, 0.07105827331542969, 0.8477416634559631, 0.17300847172737122, -0.5014015436172485, 0.10699602961540222, 0.8700957298278809, 0.4811287224292755, 0.5195062160491943, -0.46152085065841675, 0.7191050052642822, 0.0
1417426, 5.489999771118164, 97.09100341796875, -24.291934967041016, -18.30030632019043, -5.575275897979736, -18.988130569458008, -17.646671295166016, 1.1142170429229736, 228.21273803710938, 128.45399475097656, -65.16057586669922, 35.04330825805664, 0.051727294921875, 0.2470264434814453, 0.7523795366287231, 0.2692957818508148, -0.6011706590652466, 0.21285997331142426, 0.764269232749939, 0.6087551116943359, 0.6233909130096436, -0.5859800577163696, 0.5176981091499329, 0.0
1417436, 5.489999771118164, 97.07499694824219, -24.588645935058594, -17.970096588134766, -6.273980140686035, -18.939260482788086, -17.590471267700195, 1.1435389518737793, 229.4198455810547, 127.6701889038086, -65.24099731445312, 35.14741516113281, -0.3795928955078125, 0.24026107788085938, 0.6443251371383667, 0.38160276412963867, -0.6627410650253296, 0.33610987663269043, 0.637119472026825, 0.6936198472976685, 0.6869319677352905, -0.669670581817627, 0.28225165605545044, 0.0
1417446, 5.480000019073486, 97.05500030517578, -25.048065185546875, -17.314464569091797, -6.719045162200928, -18.85129737854004, -17.5635929107666, 1.1533130407333374, 230.91893005371094, 127.41995239257812, -64.78790283203125, 34.833065032958984, -0.1033935546875, 0.023687362670898438, 0.5306236147880554, 0.5022934079170227, -0.6827453374862671, 0.46841809153556824, 0.49754422903060913, 0.7300915718078613, 0.7064157128334045, -0.7072141766548157, 0.028725534677505493, 0.0
1417456, 5.489999771118164, 97.0469970703125, -25.100709915161133, -17.2666072845459, -6.139982223510742, -18.792654037475586, -17.55381965637207, 1.1239910125732422, 231.81826782226562, 126.10969543457031, -65.3115234375, 35.35329818725586, 0.3145294189453125, 0.13874435424804688, 0.418457955121994, 0.6237877607345581, -0.660138726234436, 0.6008882522583008, 0.35487860441207886, 0.7162359952926636, 0.6810478568077087, -0.6963843107223511, -0.22632476687431335, 0.0
1417466, 5.489999771118164, 97.02799987792969, -24.760927200317383, -17.23789405822754, -5.929413795471191, -18.753557205200195, -17.517166137695312, 1.0775660276412964, 233.17002868652344, 125.6240005493164, -64.92235565185547, 35.22469711303711, -0.5180206298828125, -0.003383636474609375, 0.31516575813293457, 0.73826003074646, -0.5963590145111084, 0.7246375679969788, 0.21857856214046478, 0.6535466909408569, 0.6128382682800293, -0.6381196975708008, -0.46608221530914307, 0.0
1417476, 5.489999771118164, 97.01000213623047, -24.435504913330078, -17.61595916748047, -5.5848469734191895, -18.751115798950195, -17.443864822387695, 1.045801043510437, 234.59873962402344, 125.2879867553711, -64.71315002441406, 34.978267669677734, 0.1309356689453125, 0.2605705261230469, 0.22769895195960999, 0.8383049368858337, -0.4953780770301819, 0.8315761089324951, 0.09726488590240479, 0.5468274354934692, 0.506590723991394, -0.5364567041397095, -0.6749668717384338, 0.0
1417486, 5.489999771118164, 96.99400329589844, -23.478374481201172, -18.075380325317383, -6.513262748718262, -18.672924041748047, -17.407211303710938, 1.0751219987869263, 235.94593811035156, 124.81473541259766, -64.22856140136719, 34.845611572265625, 0.2449493408203125, -0.037220001220703125, 0.16190475225448608, 0.9169263243675232, -0.3647386431694031, 0.9152174592018127, -0.0013125911355018616, 0.402957558631897, 0.3690034747123718, -0.3990561366081238, -0.8393991589546204, 0.0
1417496, 5.489999771118164, 96.98600006103516, -23.621944427490234, -17.77388572692871, -7.159325122833252, -18.628942489624023, -17.404767990112305, 1.1044440269470215, 236.77931213378906, 123.43888092041016, -64.69432830810547, 35.42304992675781, 0.135986328125, 0.3519325256347656, 0.12182289361953735, 0.9694413542747498, -0.21294112503528595, 0.9703052043914795, -0.07115133851766586, 0.231181338429451, 0.20896559953689575, -0.23478135466575623, -0.9493215084075928, 0.0
1417506, 5.489999771118164, 96.96099853515625, -24.028724670410156, -17.099109649658203, -7.183252811431885, -18.558082580566406, -17.39988136291504, 1.1068869829177856, 238.46253967285156, 123.59769439697266, -63.87404251098633, 34.792266845703125, -0.573699951171875, 0.11167144775390625, 0.10971757769584656, 0.9926959872245789, -0.050179675221443176, 0.9932727813720703, -0.10762067139148712, 0.0427374541759491, 0.03702490031719208, -0.05453149974346161, -0.9978255033493042, 0.0
1417516, 5.480000019073486, 96.94100189208984, -24.057437896728516, -16.98904037475586, -7.06361198425293, -18.50676918029785, -17.390106201171875, 1.0677919387817383, 240.10165405273438, 123.68317413330078, -63.24830627441406, 34.224056243896484, 0.630157470703125, 0.18950271606445312, 0.1258426010608673, 0.9855675101280212, 0.11323235183954239, 0.9827288389205933, -0.10823526978492737, -0.150095596909523, -0.1356736123561859, 0.1301647275686264, -0.982166051864624, 0.0
1417526, 5.480000019073486, 96.9280014038086, -24.16750717163086, -16.62054443359375, -6.70468807220459, -18.42613410949707, -17.373003005981445, 1.0238089561462402, 241.32455444335938, 123.031494140625, -63.08268737792969, 34.241172790527344, 0.5663909912109375, 0.057525634765625, 0.16896803677082062, 0.9488742351531982, 0.2666247487068176, 0.9394475221633911, -0.0732194185256958, -0.3347786068916321, -0.29814064502716064, 0.30704647302627563, -0.903789222240448, 0.0
1417536, 5.480000019073486, 96.91300201416016, -23.320449829101562, -17.33839225769043, -5.747559070587158, -18.39436912536621, -17.321691513061523, 0.9602789878845215, 242.54544067382812, 122.38948822021484, -63.001121520996094, 34.250972747802734, -0.0150146484375, 0.18273544311523438, 0.23594334721565247, 0.8852110505104065, 0.4009156823158264, 0.866445779800415, -0.004830226302146912, -0.4992472529411316, -0.44000259041786194, 0.465165376663208, -0.7681270837783813, 0.0
1417546, 5.480000019073486, 96.89900207519531, -22.84188461303711, -17.77388572692871, -5.139781951904297, -18.404144287109375, -17.21662139892578, 0.9798269867897034, 243.70413208007812, 121.64887237548828, -63.057884216308594, 34.338191986083984, -0.0087432861328125, 0.09136772155761719, 0.3229168951511383, 0.7983701229095459, 0.5082628726959229, 0.7689036130905151, 0.09181833267211914, -0.6327369213104248, -0.551826000213623, 0.595126211643219, -0.5842201113700867, 0.0
1417556, 5.489999771118164, 96.88600158691406, -22.449460983276367, -18.07059669494629, -5.43170690536499, -18.35283088684082, -17.16530990600586, 1.0238089561462402, 244.79733276367188, 120.80416107177734, -63.159149169921875, 34.50714111328125, -0.0865020751953125, 0.03045654296875, 0.4246160686016083, 0.694025993347168, 0.5814038515090942, 0.6530763506889343, 0.20996886491775513, -0.7276014089584351, -0.6270509362220764, 0.688651978969574, -0.3640959858894348, 0.0
1417566, 5.480000019073486, 96.86499786376953, -21.951753616333008, -18.587444305419922, -5.795415878295898, -18.33572769165039, -17.131101608276367, 1.0555739402770996, 246.32009887695312, 120.73914337158203, -62.727508544921875, 34.06196212768555, -0.1674652099609375, 0.06768226623535156, 0.5344834923744202, 0.5786018371582031, 0.6160752177238464, 0.5263302326202393, 0.34246891736984253, -0.7782615423202515, -0.6612901091575623, 0.7402265667915344, -0.12149187922477722, 0.0
1417576, 5.480000019073486, 96.85099792480469, -22.817955017089844, -17.764314651489258, -6.125625133514404, -18.325952529907227, -17.157978057861328, 1.138651967048645, 247.57693481445312, 120.20559692382812, -62.68400573730469, 33.987998962402344, 0.4430999755859375, -0.013538360595703125, 0.6461491584777832, 0.45895305275917053, 0.6097989082336426, 0.39646607637405396, 0.48088333010673523, -0.782026469707489, -0.6521555185317993, 0.7470699548721313, 0.12876276671886444, 0.0
1417586, 5.5, 96.84300231933594, -22.53081703186035, -17.36710548400879, -6.7238311767578125, -18.299074172973633, -17.170196533203125, 1.1606429815292358, 248.37619018554688, 118.86639404296875, -62.76502990722656, 34.55292892456055, 0.07330322265625, -0.030458450317382812, 0.752037763595581, 0.34296467900276184, 0.5628638863563538, 0.27160823345184326, 0.6168355345726013, -0.7387438416481018, -0.6005575060844421, 0.7084413170814514, 0.37073129415512085, 0.0
1417596, 5.489999771118164, 96.82599639892578, -22.995025634765625, -16.95553970336914, -6.943971157073975, -18.269752502441406, -17.167753219604492, 1.1410959959030151, 249.58189392089844, 118.27472686767578, -62.77357864379883, 34.524253845214844, -0.5571136474609375, 0.48390769958496094, 0.8452259302139282, 0.23821187019348145, 0.4783823490142822, 0.15944986045360565, 0.7419744729995728, -0.6511905193328857, -0.5100688934326172, 0.6266807913780212, 0.5891528129577637, 0.0
1417606, 5.480000019073486, 96.80699920654297, -23.1768798828125, -16.6779727935791, -6.532404899597168, -18.162240982055664, -17.177526473999023, 1.0995570421218872, 251.03909301757812, 118.1417465209961, -62.31803512573242, 34.13639450073242, 0.02813720703125, -0.03722381591796875, 0.9199046492576599, 0.15180271863937378, 0.361569881439209, 0.066625215113163, 0.8481265306472778, -0.5255872011184692, -0.38644275069236755, 0.5075795650482178, 0.7700812220573425, 0.0
1417616, 5.480000019073486, 96.78700256347656, -23.047666549682617, -16.582260131835938, -5.85762882232666, -18.049842834472656, -17.03091812133789, 0.9749400019645691, 252.61630249023438, 118.22956848144531, -61.602298736572266, 33.57970428466797, 0.386932373046875, 0.06768226623535156, 0.9710068702697754, 0.0896526500582695, 0.22160646319389343, -0.001334846019744873, 0.9290316700935364, -0.3699970841407776, -0.23905086517333984, 0.35897380113601685, 0.9022153615951538, 0.0
1417626, 5.489999771118164, 96.76799774169922, -22.473388671875, -16.610973358154297, -4.776072978973389, -17.976537704467773, -16.952728271484375, 0.9407320022583008, 254.16920471191406, 118.27958679199219, -60.69767379760742, 33.06085205078125, 0.5560455322265625, 0.15904617309570312, 0.9962761998176575, 0.054291728883981705, 0.06698891520500183, -0.040369320660829544, 0.9801702499389648, -0.19400030374526978, -0.07619345188140869, 0.1905735582113266, 0.9787116050720215, 0.0
1417636, 5.489999771118164, 96.76300048828125, -22.19582176208496, -16.993825912475586, -4.886143207550049, -17.959434509277344, -16.85987663269043, 0.9334009885787964, 254.89404296875, 116.86177825927734, -61.408172607421875, 33.696903228759766, 0.5208892822265625, 0.385772705078125, 0.9945870637893677, 0.047265272587537766, -0.09254096448421478, -0.04820290207862854, 0.9988058805465698, -0.007925361394882202, 0.09205547720193863, 0.012343242764472961, 0.9956774115562439, 0.0
1417646, 5.46999979019165, 96.73500061035156, -22.420747756958008, -17.00339698791504, -5.2929229736328125, -17.94232940673828, -16.77924156188965, 0.9578359723091125, 256.72021484375, 117.42521667480469, -60.64723587036133, 32.7701530456543, -0.634124755859375, -0.0744476318359375, 0.9664714336395264, 0.0684831514954567, -0.24747583270072937, -0.02441409043967724, 0.983920156955719, 0.17693105340003967, 0.2556128203868866, -0.16495682299137115, 0.9526024460792542, 0.0
1417656, 5.480000019073486, 96.7249984741211, -22.392032623291016, -17.2666072845459, -5.804986953735352, -17.986312866210938, -16.73037338256836, 0.9724969863891602, 257.8404235839844, 116.727783203125, -60.88264846801758, 32.83974838256836, 0.9208984375, -0.16581344604492188, 0.9138748645782471, 0.11680066585540771, -0.3888334631919861, 0.02927219308912754, 0.936275839805603, 0.35004305839538574, 0.4049402177333832, -0.3312774896621704, 0.8522198796272278, 0.0
1417666, 5.480000019073486, 96.70600128173828, -21.894325256347656, -17.00339698791504, -6.240480899810791, -17.90812110900879, -16.713268280029297, 0.9920439720153809, 259.250732421875, 116.55756378173828, -60.00608825683594, 32.50123596191406, -0.071136474609375, -0.1658172607421875, 0.8400154113769531, 0.18881016969680786, -0.508651077747345, 0.10960634797811508, 0.8591130971908569, 0.49991047382354736, 0.5313766002655029, -0.4756838083267212, 0.7009735107421875, 0.0
1417676, 5.46999979019165, 96.69599914550781, -22.348962783813477, -17.084753036499023, -6.326622009277344, -17.910564422607422, -16.713268280029297, 1.0115920305252075, 260.2344970703125, 115.63877868652344, -60.6312141418457, 32.74736404418945, 0.343017578125, 0.5380516052246094, 0.7492884993553162, 0.2804880738258362, -0.5999119281768799, 0.21173956990242004, 0.7568580508232117, 0.618329644203186, 0.6274819374084473, -0.5903323292732239, 0.5077147483825684, 0.0
1417686, 5.480000019073486, 96.68000030517578, -22.60738754272461, -17.505889892578125, -6.206981182098389, -17.847034454345703, -16.74747657775879, 1.0018179416656494, 261.431884765625, 115.11089324951172, -61.044776916503906, 32.68040084838867, -0.249267578125, -0.3790016174316406, 0.646803081035614, 0.38621944189071655, -0.6576333045959473, 0.32950758934020996, 0.6361382603645325, 0.6976763010025024, 0.6878015398979187, -0.6679542660713196, 0.28419414162635803, 0.0
1417696, 5.46999979019165, 96.66000366210938, -22.238893508911133, -17.257036209106445, -6.317050933837891, -17.77128791809082, -16.701051712036133, 0.994488000869751, 262.9373474121094, 115.13743591308594, -60.1127815246582, 32.184932708740234, 0.06134033203125, -0.4805278778076172, 0.5391233563423157, 0.4995485544204712, -0.6780844926834106, 0.4553298354148865, 0.504432737827301, 0.7336359620094299, 0.7085344791412354, -0.7042723298072815, 0.04449230432510376, 0.0
1417706, 5.489999771118164, 96.65499877929688, -22.25803565979004, -16.98904037475586, -6.159124851226807, -17.729747772216797, -16.703495025634766, 0.9822710156440735, 263.6627197265625, 113.7823715209961, -60.530967712402344, 32.77908706665039, 0.4981689453125, 0.43652915954589844, 0.4322618544101715, 0.6139785647392273, -0.6604402661323547, 0.5820256471633911, 0.36945009231567383, 0.7243977785110474, 0.6887640953063965, -0.697522759437561, -0.19765183329582214, 0.0
1417716, 5.480000019073486, 96.63700103759766, -22.104894638061523, -16.764114379882812, -5.73320198059082, -17.70531463623047, -16.66684341430664, 0.9602789878845215, 264.92034912109375, 113.39601135253906, -60.094635009765625, 32.61008834838867, -0.589630126953125, 0.17596817016601562, 0.33267366886138916, 0.7228976488113403, -0.6055976748466492, 0.701829195022583, 0.23914578557014465, 0.6710025668144226, 0.6298920512199402, -0.6482511162757874, -0.42779287695884705, 0.0
1417726, 5.46999979019165, 96.61699676513672, -21.9326114654541, -16.98904037475586, -5.6614179611206055, -17.602689743041992, -16.603313446044922, 0.9285140037536621, 266.42926025390625, 113.46865844726562, -59.60235595703125, 32.080589294433594, 0.171234130859375, 0.2673358917236328, 0.24616453051567078, 0.8195090889930725, -0.5175029039382935, 0.8076306581497192, 0.12175573408603668, 0.5769814252853394, 0.5358502864837646, -0.5599837303161621, -0.6318884491920471, 0.0
1417736, 5.480000019073486, 96.60099792480469, -21.77468490600586, -17.056039810180664, -5.766702175140381, -17.61246109008789, -16.566661834716797, 0.9211840033531189, 267.7806396484375, 113.26422119140625, -59.231204986572266, 31.773731231689453, 0.52679443359375, -0.03722190856933594, 0.17767119407653809, 0.8987905979156494, -0.4007613956928253, 0.8936407566070557, 0.02318733185529709, 0.4481827914714813, 0.4121149778366089, -0.43776607513427734, -0.7990759611129761, 0.0
1417746, 5.46999979019165, 96.58100128173828, -21.4636173248291, -17.290536880493164, -5.718845844268799, -17.58069610595703, -16.532453536987305, 0.91874098777771, 269.33056640625, 113.42092895507812, -58.58933639526367, 31.186002731323242, 0.306243896484375, 0.06429290771484375, 0.1311190128326416, 0.9559504985809326, -0.2626171112060547, 0.9550168514251709, -0.05072321742773056, 0.2921803593635559, 0.26598912477493286, -0.2891143560409546, -0.9195993542671204, 0.0
1417756, 5.46999979019165, 96.5739974975586, -20.745771408081055, -17.635101318359375, -6.049055099487305, -17.502506256103516, -16.476253509521484, 0.948062002658844, 270.17816162109375, 112.32939147949219, -58.725494384765625, 31.586111068725586, 0.585784912109375, 0.05414009094238281, 0.10938683152198792, 0.987709641456604, -0.11164914071559906, 0.9883079528808594, -0.09606947749853134, 0.11839497089385986, 0.1062137633562088, -0.12329480051994324, -0.9866697788238525, 0.0
1417766, 5.460000038146973, 96.55799865722656, -21.07598114013672, -17.20918083190918, -6.058626174926758, -17.482959747314453, -16.478696823120117, 0.9822710156440735, 271.3477783203125, 111.8299331665039, -58.58960723876953, 31.517902374267578, -0.39544677734375, 0.26395225524902344, 0.11353515088558197, 0.9925689101219177, 0.043795958161354065, 0.991816520690918, -0.1106376200914383, -0.06370753794908524, -0.0583885982632637, 0.05067034065723419, -0.9970072507858276, 0.0
1417776, 5.480000019073486, 96.54100036621094, -20.903697967529297, -17.27617835998535, -5.838487148284912, -17.42431640625, -16.451818466186523, 0.9920439720153809, 272.6661376953125, 111.60584259033203, -58.23179626464844, 31.234542846679688, 0.06866455078125, 0.06768035888671875, 0.14300155639648438, 0.9704446792602539, 0.19439426064491272, 0.9654171466827393, -0.09351144731044769, -0.2433612197637558, -0.217990443110466, 0.22247229516506195, -0.9502559900283813, 0.0
1417786, 5.480000019073486, 96.52899932861328, -20.506488800048828, -17.070396423339844, -5.565704822540283, -17.412099838256836, -16.45670509338379, 0.9993749856948853, 273.7246398925781, 110.9261245727539, -57.88667297363281, 31.315799713134766, 0.282958984375, 0.07445144653320312, 0.19602039456367493, 0.9227113723754883, 0.3319355249404907, 0.9106405973434448, -0.04572480544447899, -0.4106608033180237, -0.3637436032295227, 0.38277149200439453, -0.8492212891578674, 0.0
1417796, 5.46999979019165, 96.51300048828125, -20.161922454833984, -17.314464569091797, -5.915057182312012, -17.375446319580078, -16.41761016845703, 1.0018179416656494, 274.97186279296875, 110.59832763671875, -57.61920166015625, 31.119388580322266, -0.076171875, 0.4263801574707031, 0.2693204879760742, 0.8522636890411377, 0.44845813512802124, 0.8308489322662354, 0.02985258400440216, -0.5556962490081787, -0.48698723316192627, 0.5222609043121338, -0.7000622749328613, 0.0
1417806, 5.480000019073486, 96.5, -20.070995330810547, -17.4532470703125, -6.116054058074951, -17.34368133544922, -16.410280227661133, 1.0164790153503418, 276.0772399902344, 110.02615356445312, -57.64950942993164, 31.115854263305664, 0.19635009765625, 0.0710601806640625, 0.3588472902774811, 0.7631782293319702, 0.5373910665512085, 0.7305493354797363, 0.12871134281158447, -0.6706194877624512, -0.5809703469276428, 0.6332401633262634, -0.5113515853881836, 0.0
1417816, 5.46999979019165, 96.48300170898438, -20.295921325683594, -17.261821746826172, -5.996413230895996, -17.307029724121094, -16.41761016845703, 1.0311399698257446, 277.3800354003906, 109.81576538085938, -57.38536834716797, 30.82802963256836, 0.003143310546875, -0.033840179443359375, 0.4595131278038025, 0.6606225371360779, 0.5936557054519653, 0.6153755784034729, 0.24515944719314575, -0.7491390109062195, -0.6404381990432739, 0.7095599174499512, -0.29387709498405457, 0.0
1417826, 5.46999979019165, 96.47599792480469, -20.248064041137695, -16.893327713012695, -5.240281105041504, -17.172639846801758, -16.36141014099121, 1.018923044204712, 278.15673828125, 108.67411041259766, -57.54024124145508, 31.27730369567871, 0.28631591796875, -0.023685455322265625, 0.564976692199707, 0.5512276887893677, 0.6139633059501648, 0.4922674894332886, 0.371978223323822, -0.7869590520858765, -0.66217440366745, 0.7468472123146057, -0.06119266152381897, 0.0
1417836, 5.46999979019165, 96.4540023803711, -19.90349769592285, -16.4913330078125, -4.852643966674805, -17.116439819335938, -16.32964515686035, 0.9969310164451599, 279.6536865234375, 108.83496856689453, -56.439918518066406, 30.704879760742188, -0.444061279296875, 0.2944011688232422, 0.6693664193153381, 0.4408673048019409, 0.5979851484298706, 0.36790353059768677, 0.5025755167007446, -0.7823454737663269, -0.6454431414604187, 0.7436761856079102, 0.17421022057533264, 0.0
1417846, 5.480000019073486, 96.44200134277344, -19.77428436279297, -16.56311798095703, -4.345365047454834, -17.082231521606445, -16.266115188598633, 0.9920439720153809, 280.7749938964844, 108.33428955078125, -56.349708557128906, 30.65528106689453, 0.5758056640625, 0.5279006958007812, 0.7668142914772034, 0.33546844124794006, 0.5472279191017151, 0.24949802458286285, 0.6297286152839661, -0.7356576919555664, -0.5913949012756348, 0.7006446719169617, 0.39918580651283264, 0.0
1417856, 5.46999979019165, 96.42500305175781, -19.61635971069336, -16.82632827758789, -4.555933952331543, -17.089561462402344, -16.19769859313965, 0.9871580004692078, 282.0796813964844, 108.17029571533203, -56.109527587890625, 30.340654373168945, 0.049835205078125, 0.04060935974121094, 0.8520295023918152, 0.24057769775390625, 0.4649405777454376, 0.1436063051223755, 0.7466622591018677, -0.6495170593261719, -0.5034128427505493, 0.6201756596565247, 0.601629376411438, 0.0
1417866, 5.46999979019165, 96.4010009765625, -19.56850242614746, -16.486547470092773, -4.589433193206787, -17.040693283081055, -16.139055252075195, 1.014035940170288, 283.8547058105469, 108.84992980957031, -54.86392593383789, 29.36915397644043, 0.31243896484375, -0.0744476318359375, 0.9206011891365051, 0.16133379936218262, 0.35562121868133545, 0.05613948404788971, 0.8465304374694824, -0.5293715596199036, -0.3864497244358063, 0.5073041319847107, 0.7702592611312866, 0.0
1417876, 5.46999979019165, 96.39299774169922, -20.185850143432617, -15.897912979125977, -4.905285835266113, -17.048023223876953, -16.08530044555664, 1.0384700298309326, 284.8150329589844, 108.0777359008789, -55.059600830078125, 29.544523239135742, 0.9703369140625, 0.27410125732421875, 0.9689257740974426, 0.10173574835062027, 0.2254645675420761, -0.008241362869739532, 0.9242743253707886, -0.3816395401954651, -0.24721762537956238, 0.36792200803756714, 0.8963910937309265, 0.0
1417886, 5.46999979019165, 96.37799835205078, -20.281564712524414, -15.744771957397461, -4.72343111038208, -17.026031494140625, -16.048648834228516, 1.0164790153503418, 285.9753723144531, 107.67385864257812, -54.90420150756836, 29.429731369018555, -0.174835205078125, -0.020305633544921875, 0.9945234060287476, 0.06547410786151886, 0.0814734548330307, -0.04662931337952614, 0.9755483865737915, -0.2147807776927948, -0.0935441106557846, 0.20980532467365265, 0.9732581377029419, 0.0
1417896, 5.46999979019165, 96.36000061035156, -20.161922454833984, -15.242279052734375, -4.287938117980957, -16.90141487121582, -15.909370422363281, 0.9749400019645691, 287.3418273925781, 107.64607238769531, -54.05976486206055, 29.025209426879883, 0.11474609375, 0.040607452392578125, 0.9962332844734192, 0.054540280252695084, -0.06742577999830246, -0.05725569278001785, 0.9975965023040771, -0.03902225196361542, 0.06513512879610062, 0.04273572564125061, 0.9969609975814819, 0.0
1417906, 5.480000019073486, 96.34200286865234, -20.348562240600586, -14.945569038391113, -4.06301212310791, -16.881868362426758, -15.853171348571777, 0.9578359723091125, 288.7760009765625, 107.74789428710938, -53.478206634521484, 28.521482467651367, 0.40765380859375, 0.4399147033691406, 0.9744271039962769, 0.06891225278377533, -0.21388015151023865, -0.03988596051931381, 0.9897432327270508, 0.13717591762542725, 0.22113913297653198, -0.12513704597949982, 0.967180609703064, 0.0
1417916, 5.460000038146973, 96.3239974975586, -19.932212829589844, -15.462418556213379, -3.943371057510376, -16.86964988708496, -15.779867172241211, 0.91874098777771, 290.2436828613281, 107.9133529663086, -52.99845886230469, 27.970670700073242, 0.502410888671875, 0.07783126831054688, 0.9305592179298401, 0.10788239538669586, -0.3498896062374115, 0.004078246653079987, 0.9524936676025391, 0.30453062057495117, 0.36612066626548767, -0.28481054306030273, 0.8859112858772278, 0.0
1417926, 5.460000038146973, 96.31900024414062, -19.48236083984375, -15.62991714477539, -4.259223937988281, -16.85987663269043, -15.701676368713379, 0.91874098777771, 290.93914794921875, 106.70427703857422, -53.334434509277344, 28.506301879882812, 0.547637939453125, -0.07106208801269531, 0.8673142194747925, 0.1688510924577713, -0.46824902296066284, 0.07240740954875946, 0.88790363073349, 0.4542951285839081, 0.4924677312374115, -0.42792102694511414, 0.7578650116920471, 0.0
1417936, 5.46999979019165, 96.2969970703125, -19.58285903930664, -15.275778770446777, -4.61336088180542, -16.857433319091797, -15.674798011779785, 0.948062002658844, 292.42974853515625, 106.93060302734375, -52.560386657714844, 27.911602020263672, -0.531097412109375, 0.19965553283691406, 0.7880901098251343, 0.2482829988002777, -0.5632684230804443, 0.1617584526538849, 0.7993583679199219, 0.5786710381507874, 0.5939269661903381, -0.5471579432487488, 0.5898044109344482, 0.0
1417946, 5.460000038146973, 96.28600311279297, -19.96571159362793, -14.715858459472656, -3.9912281036376953, -16.811006546020508, -15.63814640045166, 0.9676100015640259, 293.4737548828125, 106.36460876464844, -52.46829605102539, 27.944721221923828, 0.5941162109375, 0.17934799194335938, 0.6972246766090393, 0.3417990505695343, -0.6301212906837463, 0.26713913679122925, 0.6918089985847473, 0.6708477139472961, 0.66521817445755, -0.6360613107681274, 0.3910384774208069, 0.0
1417956, 5.480000019073486, 96.27100372314453, -19.36750602722168, -15.065211296081543, -3.7136600017547607, -16.752363204956055, -15.555068969726562, 0.9431750178337097, 294.64715576171875, 106.0401840209961, -52.13699722290039, 27.789384841918945, -0.031585693359375, 0.12520790100097656, 0.599746823310852, 0.44461530447006226, -0.6652989387512207, 0.38226819038391113, 0.5712200403213501, 0.7263458967208862, 0.7029761672019958, -0.6899459362030029, 0.172625333070755, 0.0
1417966, 5.460000038146973, 96.25199890136719, -19.28136444091797, -15.141780853271484, -4.541576862335205, -16.745033264160156, -15.513529777526855, 0.9700530171394348, 296.0931701660156, 106.21074676513672, -51.586814880371094, 27.245969772338867, 0.1566162109375, 0.17596435546875, 0.5007684230804443, 0.5512909293174744, -0.6673162579536438, 0.501669704914093, 0.4434075653553009, 0.7427764534950256, 0.7053786516189575, -0.7067310810089111, -0.05452108383178711, 0.0
1417976, 5.46999979019165, 96.24500274658203, -19.405790328979492, -14.888141632080078, -5.005784034729004, -16.6912784576416, -15.481764793395996, 0.9896010160446167, 296.91143798828125, 105.26490020751953, -51.834197998046875, 27.58472442626953, 0.5411376953125, 0.00676727294921875, 0.4053843319416046, 0.6560563445091248, -0.6365966200828552, 0.6191086173057556, 0.3153291642665863, 0.7192160487174988, 0.6725835204124451, -0.685681164264679, -0.2783401608467102, 0.0
1417986, 5.460000038146973, 96.23400115966797, -19.401004791259766, -14.739787101745605, -4.809573173522949, -16.654626846313477, -15.474433898925781, 0.9871580004692078, 297.7649230957031, 104.39622497558594, -52.00230026245117, 27.861108779907227, -0.336273193359375, 0.09136962890625, 0.3182157576084137, 0.7537729740142822, -0.5749493837356567, 0.7285821437835693, 0.19358018040657043, 0.657034695148468, 0.6065536141395569, -0.6279764771461487, -0.48758465051651, 0.0
1417996, 5.460000038146973, 96.21199798583984, -19.348363876342773, -14.203794479370117, -4.173081874847412, -16.57887840270996, -15.481764793395996, 0.9798269867897034, 299.303955078125, 104.7632064819336, -50.89400100708008, 27.169038772583008, -0.27398681640625, 0.10828399658203125, 0.2435595989227295, 0.8393174409866333, -0.4860316216945648, 0.8245294690132141, 0.08469461649656296, 0.5594443082809448, 0.5107154846191406, -0.5370053648948669, -0.6714130640029907, 0.0
1418006, 5.46999979019165, 96.2020034790039, -19.243078231811523, -14.270792961120605, -4.0965118408203125, -16.5471134185791, -15.42312240600586, 0.9602789878845215, 300.3200378417969, 104.20252227783203, -50.90787124633789, 27.20998191833496, 0.693695068359375, 0.4162273406982422, 0.18536821007728577, 0.9086968898773193, -0.3740459382534027, 0.9017195105552673, -0.006005793809890747, 0.4322798252105713, 0.39056485891342163, -0.4174154996871948, -0.8205022215843201, 0.0
1418016, 5.46999979019165, 96.18699645996094, -19.209579467773438, -14.21336555480957, -4.445864200592041, -16.53734016418457, -15.374253273010254, 0.9382879734039307, 301.47711181640625, 103.90303039550781, -50.67967224121094, 27.04607582092285, -0.04046630859375, 0.027072906494140625, 0.1463930606842041, 0.9584983587265015, -0.24464645981788635, 0.9565016031265259, -0.07406757771968842, 0.28216785192489624, 0.25233712792396545, -0.2753123342990875, -0.9276473522186279, 0.0
1418026, 5.460000038146973, 96.1729965209961, -19.13300895690918, -13.945369720458984, -4.651647090911865, -16.468923568725586, -15.33515739440918, 0.9358450174331665, 302.6187438964844, 103.5836181640625, -50.291561126708984, 26.901609420776367, 0.163909912109375, 0.06429481506347656, 0.1285952776670456, 0.986117959022522, -0.10505451261997223, 0.9863336086273193, -0.11617706716060638, 0.11682847142219543, 0.10300193727016449, -0.11864270269870758, -0.987580418586731, 0.0
1418036, 5.460000038146973, 96.16100311279297, -18.82672882080078, -13.868799209594727, -4.709074020385742, -16.405393600463867, -15.264297485351562, 0.8918629884719849, 303.6606750488281, 103.09603881835938, -50.011817932128906, 26.892581939697266, 0.14654541015625, 0.24364662170410156, 0.1322796493768692, 0.9904952049255371, 0.037726618349552155, 0.9899755120277405, -0.13011768460273743, -0.05493447184562683, -0.049503110349178314, 0.044614702463150024, -0.9977772831916809, 0.0
1418046, 5.460000038146973, 96.14399719238281, -18.266807556152344, -14.395219802856445, -5.024927139282227, -16.34430694580078, -15.208097457885742, 0.8698710203170776, 304.9317626953125, 103.02836608886719, -49.64872741699219, 26.553180694580078, 0.011993408203125, 0.2707176208496094, 0.15720948576927185, 0.9716481566429138, 0.1765984147787094, 0.9675571918487549, -0.11572818458080292, -0.22458818554878235, -0.19778284430503845, 0.20617593824863434, -0.9583182334899902, 0.0
1418056, 5.460000038146973, 96.13099670410156, -18.218950271606445, -14.222936630249023, -5.288136959075928, -16.312541961669922, -15.20565414428711, 0.8796449899673462, 306.05303955078125, 102.69845581054688, -49.36395263671875, 26.424070358276367, 0.33819580078125, 0.02368927001953125, 0.20236791670322418, 0.9306347966194153, 0.30490678548812866, 0.9202320575714111, -0.07420478761196136, -0.384273886680603, -0.33499258756637573, 0.35834914445877075, -0.8714162707328796, 0.0
1418066, 5.460000038146973, 96.11699676513672, -18.73579978942871, -13.696516036987305, -5.551347732543945, -16.292993545532227, -15.190993309020996, 0.8943060040473938, 307.1788330078125, 102.38536834716797, -49.2154426574707, 26.28232765197754, 0.130279541015625, 0.15566253662109375, 0.2654670178890228, 0.8695414066314697, 0.4164457321166992, 0.8504298329353333, -0.00770200788974762, -0.5260318517684937, -0.4541984498500824, 0.49380138516426086, -0.7415283918380737, 0.0
1418076, 5.46999979019165, 96.11199951171875, -18.190237045288086, -13.801799774169922, -5.737987995147705, -16.205028533935547, -15.190993309020996, 0.8674280047416687, 307.79315185546875, 101.16767883300781, -49.47747039794922, 26.85567855834961, 0.141204833984375, 0.00676727294921875, 0.3429936468601227, 0.7919292449951172, 0.5051785707473755, 0.7615732550621033, 0.08037720620632172, -0.6430749893188477, -0.5498741865158081, 0.6053004860877991, -0.5755432844161987, 0.0
