timestamp__ms,state_and_upcounter,temp__cc,pressure__kpa,accel_x__m_s2,accel_y__m_s2,accel_z__m_s2,gyro_x__dps,gyro_y__dps,gyro_z__dps,e_alt__m,e_vel__m_s,e_acc__m_s2,e_bias,innovation0,innovation1,r1c1,r1c2,r1c3,r2c1,r2c2,r2c3,r3c1,r3c2,r3c3,effort
6094131,0,4978,90.23300170898438,0.5168489813804626,0.7609170079231262,9.336792945861816,0.0,-0.0048859999515116215,-0.014659999869763851,-0.3400239050388336,-0.8479771614074707,-1.208724021911621,10.546089172363281,0.47274792194366455,-0.46884727478027344,1.0,0.0,0.0,0.0,1.0,0.0,0.0,0.0,1.0,0.0
6094141,0,4979,90.22899627685547,0.799202024936676,1.1772680282592773,9.700502395629883,0.0,0.012217000126838684,-0.017103999853134155,-0.2931062579154968,-0.7117254734039307,-0.6832723617553711,10.383331298828125,0.7373580932617188,0.36313724517822266,1.0,0.0,0.0,0.0,1.0,0.0,0.0,0.0,1.0,0.0
6094151,0,4978,90.23400115966797,0.8662009835243225,0.8518440127372742,10.068997383117676,-0.0048859999515116215,0.017103999853134155,-0.014659999869763851,-0.2703666388988495,-0.6386036276817322,-0.23987674713134766,10.308422088623047,0.3974256217479706,0.3689384460449219,1.0,0.0,0.0,0.0,1.0,0.0,0.0,0.0,1.0,0.0
6094161,0,4978,90.23400115966797,0.6460620164871216,1.0145560503005981,9.901498794555664,-0.0024429999757558107,0.007329999934881926,-0.0048859999515116215,-0.2632569372653961,-0.6048747301101685,-0.3481740951538086,10.249876976013184,0.1795966923236847,-0.16704654693603516,1.0,0.0,0.0,0.0,1.0,0.0,0.0,0.0,1.0,0.0
6094171,0,4978,90.23500061035156,0.6460620164871216,1.0097709894180298,9.77707290649414,-0.0024429999757558107,0.00977300014346838,-0.012217000126838684,-0.2636831998825073,-0.5932726860046387,-0.44414615631103516,10.2213716506958,0.07498714327812195,-0.12462997436523438,1.0,0.0,0.0,0.0,1.0,0.0,0.0,0.0,1.0,0.0
6094181,0,4978,90.23300170898438,0.8805580139160156,1.1533399820327759,9.992426872253418,0.0,0.0024429999757558107,-0.00977300014346838,-0.22750261425971985,-0.48501056432724,-0.10105705261230469,10.093220710754395,0.5602265000343323,0.21520137786865234,1.0,0.0,0.0,0.0,1.0,0.0,0.0,0.0,1.0,0.0
6094191,0,4978,90.23799896240234,0.6460620164871216,1.0911270380020142,9.810571670532227,-0.0024429999757558107,0.012217000126838684,-0.00977300014346838,-0.23674198985099792,-0.4977497160434723,-0.2839822769165039,10.094775199890137,-0.05829164385795593,-0.18159198760986328,1.0,0.0,0.0,0.0,1.0,0.0,0.0,0.0,1.0,0.0
6094201,0,4979,90.23400115966797,0.6604189872741699,0.8231300115585327,9.647859573364258,-0.0048859999515116215,0.007329999934881926,-0.0048859999515116215,-0.23817342519760132,-0.49106863141059875,-0.4224891662597656,10.070547103881836,0.04733671247959137,-0.162933349609375,1.0,0.0,0.0,0.0,1.0,0.0,0.0,0.0,1.0,0.0
6094211,0,4978,90.23600006103516,0.5694910287857056,0.8518440127372742,9.719644546508789,-0.0024429999757558107,0.007329999934881926,-0.0024429999757558107,-0.23936837911605835,-0.4852975904941559,-0.3435096740722656,10.063065528869629,0.04968483746051788,0.07158660888671875,1.0,0.0,0.0,0.0,1.0,0.0,0.0,0.0,1.0,0.0
6094221,0,4978,90.23400115966797,0.7082750201225281,1.038485050201416,9.824929237365723,0.0,0.0048859999515116215,0.0024429999757558107,-0.2185608297586441,-0.4200505316257477,-0.1582622528076172,9.983063697814941,0.34140652418136597,0.10537338256835938,1.0,0.0,0.0,0.0,1.0,0.0,0.0,0.0,1.0,0.0
6094231,0,4979,90.23799896240234,0.6173480153083801,0.8709869980812073,9.714859008789062,-0.0024429999757558107,0.00977300014346838,0.0024429999757558107,-0.2571164071559906,-0.5135038495063782,-0.3773775100708008,10.092370986938477,-0.45667409896850586,-0.10994243621826172,1.0,0.0,0.0,0.0,1.0,0.0,0.0,0.0,1.0,0.0
6094241,0,4978,90.23300170898438,0.7034890055656433,0.9236289858818054,9.633502960205078,-0.0024429999757558107,0.0048859999515116215,0.007329999934881926,-0.22068895399570465,-0.4060595631599426,-0.3105611801147461,9.944165229797363,0.5528587102890015,-0.08149051666259766,1.0,0.0,0.0,0.0,1.0,0.0,0.0,0.0,1.0,0.0
6094251,0,4978,90.23400115966797,0.6460620164871216,1.1485539674758911,9.734002113342285,-0.0024429999757558107,0.0048859999515116215,0.014659999869763851,-0.17138364911079407,-0.2663831114768982,-0.03518962860107422,9.769068717956543,0.7097504138946533,0.10039806365966797,1.0,0.0,0.0,0.0,1.0,0.0,0.0,0.0,1.0,0.0
6094261,0,4978,90.23300170898438,0.8901299834251404,1.1102689504623413,10.021141052246094,-0.0024429999757558107,0.0,0.017103999853134155,-0.1463424116373062,-0.19262349605560303,0.32520389556884766,9.695584297180176,0.3683851957321167,0.287261962890625,1.0,0.0,0.0,0.0,1.0,0.0,0.0,0.0,1.0,0.0
6094271,0,4978,90.23500061035156,0.6795610189437866,0.8518440127372742,9.748358726501465,-0.0048859999515116215,0.00977300014346838,0.024434000253677368,-0.15171843767166138,-0.19864517450332642,0.06141185760498047,9.68727970123291,-0.04608355462551117,-0.2724294662475586,1.0,0.0,0.0,0.0,1.0,0.0,0.0,0.0,1.0,0.0
6094281,0,4979,90.23300170898438,0.6747750043869019,0.837486982345581,9.719644546508789,-0.0024429999757558107,0.0048859999515116215,0.026877999305725098,-0.12752538919448853,-0.128016397356987,0.12405204772949219,9.595626831054688,0.3480377793312073,-0.029047012329101562,1.0,0.0,0.0,0.0,1.0,0.0,0.0,0.0,1.0,0.0
6094291,0,4979,90.23300170898438,0.7800599932670593,1.0145560503005981,9.891927719116211,-0.0024429999757558107,0.007329999934881926,0.026877999305725098,-0.11911213397979736,-0.10086329281330109,0.3164701461791992,9.575246810913086,0.12879934906959534,0.17224884033203125,1.0,0.0,0.0,0.0,1.0,0.0,0.0,0.0,1.0,0.0
6094301,0,4979,90.23799896240234,0.7274180054664612,0.9810569882392883,9.686144828796387,-0.0048859999515116215,0.007329999934881926,0.026877999305725098,-0.14754816889762878,-0.17110413312911987,0.03252220153808594,9.653873443603516,-0.36488041281700134,-0.20557212829589844,1.0,0.0,0.0,0.0,1.0,0.0,0.0,0.0,1.0,0.0
6094311,0,4978,90.23600006103516,0.602990984916687,0.765703022480011,9.671788215637207,-0.0024429999757558107,0.007329999934881926,0.021990999579429626,-0.12341079860925674,-0.10164588689804077,0.10738945007324219,9.56441593170166,0.3436545729637146,-0.014607429504394531,1.0,0.0,0.0,0.0,1.0,0.0,0.0,0.0,1.0,0.0
6094321,0,4979,90.23600006103516,0.7848449945449829,0.96670001745224,10.01635456085205,-0.0024429999757558107,0.0024429999757558107,0.019547000527381897,-0.10044300556182861,-0.03643111139535904,0.5080156326293945,9.507916450500488,0.3188188672065735,0.34454917907714844,1.0,0.0,0.0,0.0,1.0,0.0,0.0,0.0,1.0,0.0
6094331,0,4978,90.23500061035156,0.6652039885520935,1.0336990356445312,9.695716857910156,-0.0048859999515116215,0.012217000126838684,0.017103999853134155,-0.09320197999477386,-0.011080200783908367,0.23780059814453125,9.458307266235352,0.10078191757202148,-0.32021522521972656,1.0,0.0,0.0,0.0,1.0,0.0,0.0,0.0,1.0,0.0
6094341,0,4978,90.23600006103516,0.7800599932670593,0.7848449945449829,9.767500877380371,-0.0048859999515116215,0.0048859999515116215,0.012217000126838684,-0.09352288395166397,-0.009295153431594372,0.30306529998779297,9.464347839355469,-0.0029515475034713745,0.07139301300048828,1.0,0.0,0.0,0.0,1.0,0.0,0.0,0.0,1.0,0.0
6094351,0,4978,90.23400115966797,0.6604189872741699,1.0001989603042603,10.322635650634766,-0.0048859999515116215,0.0048859999515116215,0.012217000126838684,-0.07201333343982697,0.051481977105140686,0.8903446197509766,9.431612968444824,0.28702110052108765,0.5552225112915039,1.0,0.0,0.0,0.0,1.0,0.0,0.0,0.0,1.0,0.0
6094361,0,4978,90.25900268554688,0.7704880237579346,0.7130609750747681,10.126424789428711,0.012217000126838684,-0.06108599901199341,0.024434000253677368,-0.263170450925827,-0.452406644821167,0.05399131774902344,10.072673797607422,-2.5490293502807617,-0.19553279876708984,1.0,0.0,0.0,0.0,1.0,0.0,0.0,0.0,1.0,0.0
6094371,0,4978,90.2490005493164,0.23449599742889404,0.8518440127372742,8.073383331298828,-0.026877999305725098,0.14660699665546417,0.017103999853134155,-0.3278976082801819,-0.6129238605499268,-2.0507287979125977,10.12662124633789,-0.8004844784736633,-2.053281784057617,1.0,0.0,0.0,0.0,1.0,0.0,0.0,0.0,1.0,0.0
6094381,0,4979,90.2760009765625,1.115054965019226,2.9575281143188477,80.93961334228516,0.222353994846344,-0.30787599086761475,-0.0048859999515116215,-0.5937356948852539,-1.3270026445388794,64.44547271728516,16.405048370361328,-3.4517593383789062,72.86372375488281,1.0,0.0,0.0,0.0,1.0,0.0,0.0,0.0,1.0,0.0
6094391,0,4979,90.45800018310547,2.4693920612335205,4.29750919342041,115.8604736328125,0.012217000126838684,0.24190199375152588,-0.10262499749660492,-2.2081892490386963,-4.973514556884766,91.3365707397461,24.481098175048828,-21.331947326660156,35.00994873046875,1.0,0.0,0.0,0.0,1.0,0.0,0.0,0.0,1.0,0.0
6094401,0,4979,90.12799835205078,-2.120039939880371,0.03828499838709831,136.3095245361328,0.053755998611450195,-0.04153800010681152,-0.2443459928035736,-1.3027586936950684,-1.5173265933990479,113.53762817382812,22.746837615966797,12.63897705078125,20.491851806640625,1.0,0.0,0.0,0.0,1.0,0.0,0.0,0.0,1.0,0.0
6094411,0,4978,90.21199798583984,1.1437690258026123,2.1822540760040283,138.4199981689453,0.0,0.00977300014346838,-0.2785539925098419,-1.0456360578536987,0.3312077224254608,116.4241943359375,21.993194580078125,3.5449211597442627,2.135528564453125,1.0,0.0,0.0,0.0,1.0,0.0,0.0,0.0,1.0,0.0
6094421,0,4979,90.18699645996094,0.9332000017166138,7.4799628257751465,138.7023468017578,0.05619899928569794,-0.026877999305725098,-0.49602198600769043,-0.5935420393943787,2.680253267288208,118.20230102539062,20.499683380126953,5.889530181884766,0.2849578857421875,1.0,0.0,0.0,0.0,1.0,0.0,0.0,0.0,1.0,0.0
6094431,0,4979,90.19200134277344,1.5888340473175049,2.5555338859558105,136.4722442626953,0.019547000527381897,0.024434000253677368,-0.5375609993934631,-0.19749858975410461,4.834063529968262,117.382568359375,19.092395782470703,4.830787658691406,-2.229736328125,1.0,0.0,0.0,0.0,1.0,0.0,0.0,0.0,1.0,0.0
6094441,0,4979,90.21800231933594,-0.8231300115585327,-0.9188429713249207,135.62039184570312,-0.04398199915885925,0.0024429999757558107,-0.2834410071372986,0.020789429545402527,6.446744918823242,117.15328979492188,18.4681453704834,2.1815578937530518,-0.8545684814453125,1.0,0.0,0.0,0.0,1.0,0.0,0.0,0.0,1.0,0.0
6094451,0,4979,90.2030029296875,3.0340991020202637,-0.5694910287857056,126.2261734008789,-0.10262499749660492,-0.014659999869763851,-0.3469710052013397,0.33244889974594116,8.263678550720215,109.289794921875,16.947860717773438,3.2087512016296387,-9.395256042480469,1.0,0.0,0.0,0.0,1.0,0.0,0.0,0.0,1.0,0.0
6094461,0,4979,90.23899841308594,1.0528409481048584,3.795016050338745,135.81182861328125,0.007329999934881926,0.03909499943256378,-0.30298900604248047,0.35244420170783997,9.174518585205078,117.91104888916016,17.889068603515625,-0.9055355191230774,9.574172973632812,1.0,0.0,0.0,0.0,1.0,0.0,0.0,0.0,1.0,0.0
6094471,0,4979,90.21399688720703,-0.9284150004386902,1.5936189889907837,133.18450927734375,0.0,0.019547000527381897,-0.48380500078201294,0.5622217655181885,10.653536796569824,115.87557220458984,17.312129974365234,1.490955114364624,-2.6156005859375,1.0,0.0,0.0,0.0,1.0,0.0,0.0,0.0,1.0,0.0
6094481,0,4979,90.23400115966797,0.15313999354839325,0.7082750201225281,128.5376434326172,-0.0048859999515116215,-0.026877999305725098,-0.4471530020236969,0.6529848575592041,11.754556655883789,111.5014877319336,17.041837692260742,-0.2867335081100464,-4.650054931640625,1.0,0.0,0.0,0.0,1.0,0.0,0.0,0.0,1.0,0.0
6094491,0,4979,90.25800323486328,0.9858419895172119,2.1439690589904785,132.82080078125,0.03176400065422058,-0.012217000126838684,-0.23457199335098267,0.5498849153518677,12.26453971862793,114.68376159667969,18.131807327270508,-3.0077948570251465,4.2774810791015625,1.0,0.0,0.0,0.0,1.0,0.0,0.0,0.0,1.0,0.0
6094501,0,4979,90.24099731445312,-1.8089730739593506,1.464406967163086,132.45230102539062,-0.04153800010681152,0.012217000126838684,-0.14416399598121643,0.5615329146385193,13.09914779663086,113.94867706298828,18.504064559936523,-1.5520437955856323,-0.3632659912109375,1.0,0.0,0.0,0.0,1.0,0.0,0.0,0.0,1.0,0.0
6094511,0,4979,90.23300170898438,0.2967100143432617,5.781059265136719,130.58111572265625,-0.024434000253677368,-0.024434000253677368,-0.28099700808525085,0.6675629019737244,14.156608581542969,112.11298370361328,18.470422744750977,-0.4076334238052368,-1.8716278076171875,1.0,0.0,0.0,0.0,1.0,0.0,0.0,0.0,1.0,0.0
6094521,0,4979,90.21199798583984,2.4741780757904053,4.594219207763672,132.08859252929688,-0.0024429999757558107,0.0048859999515116215,-0.4593699872493744,0.9286187887191772,15.582365036010742,113.89437103271484,18.1923828125,1.514183759689331,1.50518798828125,1.0,0.0,0.0,0.0,1.0,0.0,0.0,0.0,1.0,0.0
6094531,0,4978,90.19599914550781,-0.3397800028324127,0.2584240138530731,131.98809814453125,-0.0024429999757558107,0.019547000527381897,-0.5277870297431946,1.3001234531402588,17.28296661376953,114.52112579345703,17.467086791992188,2.791943073272705,-0.098663330078125,1.0,0.0,0.0,0.0,1.0,0.0,0.0,0.0,1.0,0.0
6094541,0,4978,90.21199798583984,-0.2775669991970062,6.20219612121582,135.309326171875,0.017103999853134155,-0.00977300014346838,-0.5155699849128723,1.528079867362976,18.560346603393555,117.76138305664062,17.543882369995117,0.6568188667297363,3.32110595703125,1.0,0.0,0.0,0.0,1.0,0.0,0.0,0.0,1.0,0.0
6094551,0,4978,90.21900177001953,-0.04785599932074547,6.336194038391113,133.73484802246094,0.007329999934881926,0.007329999934881926,-0.7232639789581299,1.6997517347335815,19.68492889404297,116.2413101196289,17.49546241760254,-0.26351678371429443,-1.5704193115234375,1.0,0.0,0.0,0.0,1.0,0.0,0.0,0.0,1.0,0.0
6094561,0,4978,90.22200012207031,0.837486982345581,2.732603073120117,132.14602661132812,-0.07330299913883209,-0.06597299873828888,-0.8087850213050842,1.8323605060577393,20.65995216369629,114.53067779541016,17.617300033569336,-0.931404709815979,-1.5907440185546875,1.0,0.0,0.0,0.0,1.0,0.0,0.0,0.0,1.0,0.0
6094571,0,4979,90.23100280761719,1.4548360109329224,3.369093894958496,132.3374481201172,-0.07330299913883209,-0.05619899928569794,-0.9162970185279846,1.9346917867660522,21.51105499267578,114.32980346679688,18.00741958618164,-1.4624722003936768,0.1894683837890625,1.0,0.0,0.0,0.0,1.0,0.0,0.0,0.0,1.0,0.0
6094581,0,4978,90.22699737548828,1.4117649793624878,-1.7371890544891357,131.30374145507812,0.00977300014346838,-0.03420799970626831,-0.8283330202102661,2.0590481758117676,22.396310806274414,113.044189453125,18.260814666748047,-1.2826550006866455,-1.033477783203125,1.0,0.0,0.0,0.0,1.0,0.0,0.0,0.0,1.0,0.0
6094591,0,4979,90.22100067138672,-1.330409049987793,-2.000399112701416,135.35240173339844,0.03665100038051605,-0.012217000126838684,-0.6426299810409546,2.2405893802642822,23.398212432861328,116.6228256225586,18.724634170532227,-0.639188289642334,4.047393798828125,1.0,0.0,0.0,0.0,1.0,0.0,0.0,0.0,1.0,0.0
6094601,0,4979,90.18499755859375,-1.8999009132385254,4.130011081695557,135.9506072998047,0.02932099997997284,-0.058642998337745667,-0.46425700187683105,2.6880245208740234,25.119779586791992,117.89051818847656,18.059345245361328,2.760503053665161,0.6031494140625,1.0,0.0,0.0,0.0,1.0,0.0,0.0,0.0,1.0,0.0
6094611,0,4979,90.23100280761719,-2.512463092803955,5.398207187652588,138.23814392089844,0.02932099997997284,-0.07574699819087982,-0.398283988237381,2.782020330429077,25.862470626831055,119.44903564453125,18.78630828857422,-2.1685054302215576,2.2882843017578125,1.0,0.0,0.0,0.0,1.0,0.0,0.0,0.0,1.0,0.0
6094621,0,4978,90.22599792480469,1.5266199111938477,6.4414777755737305,135.88839721679688,-0.026877999305725098,-0.08063399791717529,-0.4007270038127899,2.8758912086486816,26.60028839111328,116.69483947753906,19.196426391601562,-2.2699451446533203,-2.346954345703125,1.0,0.0,0.0,0.0,1.0,0.0,0.0,0.0,1.0,0.0
6094631,0,4979,90.19100189208984,2.0530409812927246,1.7084749937057495,134.5340576171875,-0.0024429999757558107,-0.07085999846458435,-0.632856011390686,3.217586040496826,27.954072952270508,115.6785659790039,18.857154846191406,0.9288091659545898,-1.357208251953125,0.9999794960021973,0.006354049779474735,-0.0007852826383896172,-0.006354043260216713,0.9999797940254211,1.1050420653191395e-05,0.0007853370043449104,-6.058419330656761e-06,0.9999997019767761,0.0
6094641,0,4979,90.23500061035156,1.3112659454345703,1.1676969528198242,137.1757354736328,0.07085999846458435,0.02932099997997284,-0.5033519864082336,3.2248356342315674,28.36711311340332,117.16921997070312,20.00328254699707,-3.697246789932251,2.6400146484375,0.999934732913971,0.011412401683628559,-0.000575228244997561,-0.011412812396883965,0.9999346137046814,-0.0007153176702558994,0.0005670354003086686,0.0007218405371531844,0.9999995827674866,0.0
6094651,0,4979,90.24800109863281,-2.1918249130249023,1.239482045173645,139.32449340820312,0.07574699819087982,-0.024434000253677368,-0.49113500118255615,3.1405370235443115,28.5389404296875,117.88114929199219,21.44070816040039,-4.970358848571777,2.1519927978515625,0.9998660087585449,0.016348227858543396,-0.0009069833904504776,-0.016349563375115395,0.9998652935028076,-0.0014841321390122175,0.0008826125995256007,0.0014987641479820013,0.9999985098838806,0.0
6094661,0,4979,90.22200012207031,0.5312060117721558,2.100898027420044,140.5496063232422,0.08063399791717529,-0.04398199915885925,-0.559552013874054,3.254051923751831,29.24228286743164,118.40873718261719,22.13937759399414,-2.3635830879211426,1.227752685546875,0.999757707118988,0.021967271342873573,-0.0014391751028597355,-0.021970542147755623,0.9997559785842896,-0.002296297112479806,0.0013883940409868956,0.002327362773939967,0.9999963641166687,0.0
6094671,0,4978,90.22599792480469,0.18663999438285828,4.823929786682129,140.70753479003906,0.058642998337745667,-0.053755998611450195,-0.5546650290489197,3.336320400238037,29.848430633544922,117.81735229492188,22.889984130859375,-2.8728907108306885,0.159423828125,0.999618649482727,0.027536671608686447,-0.0020681708119809628,-0.02754257805645466,0.9996164441108704,-0.002883205423131585,0.001987992785871029,0.002939075930044055,0.9999937415122986,0.0
6094681,0,4979,90.20800018310547,0.8470590114593506,4.800002098083496,140.5543975830078,0.07574699819087982,-0.03176400065422058,-0.5448909997940063,3.5494210720062256,30.782466888427734,117.36382293701172,23.190759658813477,-1.213571548461914,-0.1529388427734375,0.9994519948959351,0.03300682082772255,-0.0024857567623257637,-0.03301576152443886,0.9994481205940247,-0.003644249401986599,0.0023641041480004787,0.00372433103621006,0.9999903440475464,0.0
6094691,0,4979,90.19000244140625,1.330409049987793,2.7038888931274414,141.6646728515625,0.07818999886512756,-0.053755998611450195,-0.535116970539093,3.8864786624908447,32.018611907958984,118.4703140258789,23.192996978759766,0.3106532096862793,1.1100921630859375,0.999258279800415,0.038377828896045685,-0.0031281118281185627,-0.03839145973324776,0.9992529153823853,-0.004419576842337847,0.0029561654664576054,0.004536401480436325,0.99998539686203,0.0
6094701,0,4979,90.20999908447266,0.5503489971160889,1.7036889791488647,144.1292724609375,0.05619899928569794,-0.046424999833106995,-0.5204570293426514,4.063675403594971,32.80503845214844,120.24164581298828,23.884607315063477,-1.9799222946166992,2.4659576416015625,0.9990420341491699,0.04360152781009674,-0.0036923070438206196,-0.043619636446237564,0.999035656452179,-0.00497476477175951,0.003471839940175414,0.0051310695707798,0.9999808669090271,0.0
6094711,0,4979,90.21800231933594,0.7609170079231262,1.1916249990463257,140.32469177246094,0.08307699859142303,-0.04153800010681152,-0.5009089708328247,4.1764936447143555,33.41564178466797,115.96949768066406,24.359838485717773,-2.941621780395508,-3.8015594482421875,0.9988079071044922,0.04862739518284798,-0.004222920164465904,-0.04865146428346634,0.9987987875938416,-0.005797790363430977,0.003935910761356354,0.005996347405016422,0.9999743103981018,0.0
6094721,0,4978,90.21900177001953,0.7226319909095764,4.101296901702881,145.20603942871094,0.1148419976234436,-0.08063399791717529,-0.45692700147628784,4.278964042663574,33.940181732177734,119.66741180419922,25.532657623291016,-3.157561779022217,4.876708984375,0.9985697865486145,0.05321071669459343,-0.0051641035825014114,-0.05324581265449524,0.9985573291778564,-0.006915558595210314,0.0047886669635772705,0.0071806525811553,0.9999628067016602,0.0
6094731,0,4979,90.23100280761719,0.3828510046005249,4.364508152008057,146.65130615234375,0.10995499789714813,-0.0879639983177185,-0.4471530020236969,4.291170120239258,34.24570846557617,119.87027740478516,26.779247283935547,-4.429891109466553,1.45123291015625,0.9983149170875549,0.0576944537460804,-0.006180827505886555,-0.05774293467402458,0.9982994198799133,-0.00797615759074688,0.005710125435143709,0.008319640532135963,0.9999491572380066,0.0
6094741,0,4979,90.22200012207031,0.3589229881763458,4.3884358406066895,145.64633178710938,0.13194599747657776,-0.06597299873828888,-0.4471530020236969,4.371011734008789,34.7259407043457,118.02409362792969,27.62346649169922,-3.571383476257324,-1.0031890869140625,0.9980405569076538,0.06217453256249428,-0.006995962932705879,-0.062238071113824844,0.9980181455612183,-0.009264858439564705,0.006406053435057402,0.009682142175734043,0.9999327063560486,0.0
6094751,0,4979,90.23600006103516,-0.15792599320411682,2.684746026992798,146.5460205078125,0.13194599747657776,-0.09040799736976624,-0.4398219883441925,4.347004413604736,34.897369384765625,117.56536102294922,28.979568481445312,-5.014760971069336,0.898468017578125,0.9977483749389648,0.0665789246559143,-0.008060656487941742,-0.06666211038827896,0.9977198243141174,-0.010534140281379223,0.00734092528000474,0.011047781445086002,0.9999121427536011,0.0
6094761,0,4979,90.23300170898438,0.057427000254392624,2.7134599685668945,142.7222900390625,0.13194599747657776,-0.10751199722290039,-0.4178310036659241,4.348222255706787,35.127105712890625,112.821044921875,29.905916213989258,-4.70185661315918,-3.8226318359375,0.9974496960639954,0.07076109200716019,-0.009301421232521534,-0.0708685889840126,0.9974158406257629,-0.01178702898323536,0.008443333208560944,0.012416158802807331,0.9998874068260193,0.0
6094771,0,4979,90.24099731445312,0.5838479995727539,3.0436699390411377,147.06288146972656,0.17348499596118927,-0.09285099804401398,-0.38117900490760803,4.292848587036133,35.152618408203125,115.42115783691406,31.63641357421875,-5.481684684753418,4.3359222412109375,0.9971609115600586,0.07457079738378525,-0.01043116394430399,-0.07470811158418655,0.997114360332489,-0.013459796085953712,0.009397354908287525,0.014200895093381405,0.9998551607131958,0.0
6094781,0,4978,90.16500091552734,-0.33020898699760437,4.240080833435059,146.4646759033203,0.19058899581432343,-0.09040799736976624,-0.35430100560188293,4.796786785125732,36.69904708862305,115.37425231933594,31.091148376464844,1.9497075080871582,-0.5928955078125,0.9968776702880859,0.07810758054256439,-0.0115557461977005,-0.07827992737293243,0.9968137145042419,-0.01530070323497057,0.01032381970435381,0.016157537698745728,0.9998162984848022,0.0
6094791,0,4978,90.18299865722656,0.15792599320411682,3.8141589164733887,150.81961059570312,0.2028069943189621,-0.09529399871826172,-0.3371970057487488,5.145750045776367,37.789188385009766,119.31962585449219,31.49465560913086,-0.31639671325683594,4.354217529296875,0.9965940117835999,0.08146916329860687,-0.012745129875838757,-0.08168285340070724,0.9965086579322815,-0.017255470156669617,0.011294828727841377,0.01823779195547104,0.9997699856758118,0.0
6094801,0,4978,90.2300033569336,0.0,3.637089967727661,146.28759765625,0.23945899307727814,-0.09285099804401398,-0.33475399017333984,5.135651588439941,37.92860412597656,113.78634643554688,32.50679016113281,-5.237982273101807,-4.5266876220703125,0.9963001608848572,0.08479807525873184,-0.01394718512892723,-0.08506211638450623,0.9961830377578735,-0.01957331970334053,0.012234137393534184,0.020687319338321686,0.999711275100708,0.0
6094811,0,4978,90.2249984741211,-0.10528399795293808,3.4456639289855957,147.9769287109375,0.2370149940252304,-0.09285099804401398,-0.34208399057388306,5.163822650909424,38.11212921142578,114.12350463867188,33.85136795043945,-4.744015216827393,1.6837921142578125,0.9959874153137207,0.08819644153118134,-0.015154924243688583,-0.08851556479930878,0.995834469795227,-0.021862581372261047,0.013163555413484573,0.023116346448659897,0.9996462464332581,0.0
6094821,0,4978,90.18800354003906,0.5790629982948303,3.2303099632263184,148.84791564941406,0.26633700728416443,-0.11972899734973907,-0.34208399057388306,5.4617133140563965,39.01549530029297,114.62678527832031,34.220054626464844,-1.1824860572814941,0.873046875,0.9956573247909546,0.09158580750226974,-0.01666443794965744,-0.09197641909122467,0.9954615235328674,-0.02441520243883133,0.014352708123624325,0.02584194764494896,0.9995630979537964,0.0
6094831,0,4978,90.18000030517578,0.45463600754737854,3.809372901916504,152.0495147705078,0.268779993057251,-0.10506799817085266,-0.31276199221611023,5.8039870262146,40.01839828491211,117.4052963256836,34.64031219482422,-0.7128238677978516,3.2026824951171875,0.9953441023826599,0.0946778655052185,-0.0180385522544384,-0.09514366835355759,0.9950971007347107,-0.02700064517557621,0.015393754467368126,0.0285912174731493,0.9994727373123169,0.0
6094841,0,4978,90.2030029296875,-0.33020898699760437,3.5557339191436768,146.34503173828125,0.31276199221611023,-0.09773799777030945,-0.2932150065898895,5.961997985839844,40.52893829345703,111.28531646728516,35.066680908203125,-3.2979321479797363,-5.7005767822265625,0.9950399994850159,0.09756249934434891,-0.019389746710658073,-0.09811635315418243,0.9947215914726257,-0.030026283115148544,0.016357945278286934,0.03177984431385994,0.9993610978126526,0.0
6094851,0,4978,90.19300079345703,-0.17228299379348755,4.484148979187012,148.0774383544922,0.344527006149292,-0.10751199722290039,-0.2492319941520691,6.185521125793457,41.140750885009766,112.24046325683594,35.834861755371094,-2.4907102584838867,1.7254486083984375,0.9947680830955505,0.09999783337116241,-0.020877612754702568,-0.10065697133541107,0.9943616986274719,-0.03335405886173248,0.017424536868929863,0.03528108075261116,0.9992255568504333,0.0
6094861,0,4978,90.16100311279297,-0.3206380009651184,4.26400899887085,143.37313842773438,0.38362300395965576,-0.09529399871826172,-0.22724099457263947,6.631579399108887,42.34077835083008,107.9912109375,35.38768005371094,0.3861069679260254,-4.702178955078125,0.9945135116577148,0.10220031440258026,-0.02229120209813118,-0.10297779738903046,0.9939920902252197,-0.03707889840006828,0.018367759883403778,0.03917102515697479,0.9990636706352234,0.0
6094871,0,4979,90.18699645996094,-0.13399800658226013,4.067798137664795,149.2738494873047,0.3787359893321991,-0.10018099844455719,-0.19791999459266663,6.865204334259033,42.8986930847168,112.77544403076172,36.491188049316406,-2.5951156616210938,5.89495849609375,0.9942818284034729,0.10410624742507935,-0.023756008595228195,-0.10501209646463394,0.9936355948448181,-0.04074644669890404,0.019362803548574448,0.043008189648389816,0.9988870620727539,0.0
6094881,0,4979,90.18800354003906,-0.3828510046005249,3.3547370433807373,145.79946899414062,0.38117900490760803,-0.10751199722290039,-0.1832589954137802,7.079334735870361,43.4366455078125,108.81510162353516,36.98860168457031,-2.9316658973693848,-3.4671630859375,0.9940584897994995,0.10585964471101761,-0.02530297078192234,-0.10690711438655853,0.9932757019996643,-0.04442702233791351,0.020429745316505432,0.04686819389462471,0.9986921548843384,0.0
6094891,0,4978,90.18000030517578,-0.3014949858188629,3.0101699829101562,153.4325714111328,0.4178310036659241,-0.09285099804401398,-0.17348499596118927,7.34056282043457,44.0472297668457,115.25962829589844,38.16362380981445,-2.374366283416748,7.6288604736328125,0.9938445687294006,0.10750021785497665,-0.02674955315887928,-0.10870202630758286,0.9928910136222839,-0.04848383739590645,0.021347319707274437,0.051093198359012604,0.9984657168388367,0.0
6094901,0,4979,90.1709976196289,-0.37327998876571655,2.9575281143188477,146.2014617919922,0.4129439890384674,-0.1221729964017868,-0.1685979962348938,7.653736591339111,44.843841552734375,108.12598419189453,38.08429718017578,-1.7691588401794434,-7.2217864990234375,0.9936233162879944,0.10908651351928711,-0.028488779440522194,-0.11046656221151352,0.9924942255020142,-0.0524565763771534,0.02255258895456791,0.055269211530685425,0.9982167482376099,0.0
6094911,0,4978,90.177001953125,-0.15792599320411682,3.5988049507141113,155.6004638671875,0.474031001329422,-0.08307699859142303,-0.15149399638175964,7.906600475311279,45.38763427734375,116.12275695800781,39.466224670410156,-2.67221736907959,9.390182495117188,0.9934276938438416,0.11047812551259995,-0.029912542551755905,-0.11204484105110168,0.9920623898506165,-0.057075079530477524,0.02336949296295643,0.06005159392952919,0.9979216456413269,0.0
6094921,0,4978,90.1510009765625,-0.282353013753891,3.7663021087646484,154.5906982421875,0.510683000087738,-0.08063399791717529,-0.1343899965286255,8.335694313049316,46.46703338623047,115.094970703125,39.49695587158203,-0.40668773651123047,-0.998291015625,0.9932485818862915,0.1116815060377121,-0.0313587449491024,-0.11345569044351578,0.991602897644043,-0.06205639988183975,0.02416481263935566,0.06519533693790436,0.9975798726081848,0.0
6094931,0,4978,90.16600036621094,-0.6077759861946106,3.4695920944213867,153.44692993164062,0.5155699849128723,-0.08063399791717529,-0.1270589977502823,8.632938385009766,47.15475845336914,113.44393920898438,40.00439453125,-2.302578926086426,-1.144989013671875,0.9930747151374817,0.11280282586812973,-0.03281623497605324,-0.11479763686656952,0.9911210536956787,-0.06708253920078278,0.024957703426480293,0.07038528472185135,0.9972076416015625,0.0
6094941,0,4978,90.14700317382812,-0.49292099475860596,2.9527430534362793,148.92449951171875,0.5375609993934631,-0.08063399791717529,-0.11728599667549133,9.052790641784668,48.135704040527344,109.06417846679688,39.8658561706543,-0.7627458572387695,-4.523834228515625,0.99290931224823,0.11381189525127411,-0.034303996711969376,-0.11604662984609604,0.9906070232391357,-0.07232286036014557,0.025750529021024704,0.07579098641872406,0.9967912435531616,0.0
6094951,0,4978,90.1520004272461,-0.4211359918117523,2.890528917312622,156.796875,0.5571079850196838,-0.07574699819087982,-0.11239899694919586,9.413457870483398,48.8890380859375,115.90806579589844,40.879188537597656,-1.6771736145019531,7.8668365478515625,0.9927487373352051,0.11475741118192673,-0.035770710557699203,-0.11724763363599777,0.9900537133216858,-0.07775849848985672,0.026491502299904823,0.08138876408338547,0.9963303804397583,0.0
6094961,0,4978,90.15699768066406,-0.5072780251502991,3.163311004638672,150.1017608642578,0.5839869976043701,-0.06352899968624115,-0.10506799817085266,9.717731475830078,49.53874206542969,109.07431030273438,41.0356330871582,-2.531679153442383,-6.6855010986328125,0.992598831653595,0.1156122237443924,-0.037151999771595,-0.11837022006511688,0.9894548058509827,-0.08347038179636002,0.027109963819384575,0.08725037425756454,0.9958175420761108,0.0
6094971,0,4978,90.18199920654297,-0.2440669983625412,3.1680970191955566,149.14463806152344,0.6279690265655518,-0.048868998885154724,-0.09529399871826172,9.822343826293945,49.569671630859375,106.82679748535156,42.31901931762695,-5.268194198608398,-0.965301513671875,0.992464005947113,0.11634543538093567,-0.03844333812594414,-0.11938698589801788,0.9887936115264893,-0.08963028341531754,0.027584388852119446,0.09354455769062042,0.9952329397201538,0.0
6094981,0,4978,90.1520004272461,-0.33499500155448914,3.2446670532226562,147.7567901611328,0.6230819821357727,-0.051311999559402466,-0.08063399791717529,10.138289451599121,50.14284896850586,104.90935516357422,42.84912872314453,-2.4609556198120117,-1.3890228271484375,0.9923439025878906,0.11692673712968826,-0.03975728899240494,-0.12026391178369522,0.9881149530410767,-0.09573419392108917,0.028090819716453552,0.09978272020816803,0.9946127533912659,0.0
6094991,0,4978,90.14399719238281,-0.9906280040740967,3.019742012023926,156.796875,0.6377429962158203,-0.058642998337745667,-0.08307699859142303,10.494094848632812,50.78851318359375,112.75214385986328,44.03368377685547,-2.005925178527832,9.03839111328125,0.9922167062759399,0.11751774698495865,-0.04116475582122803,-0.12117527425289154,0.9873796105384827,-0.10196912288665771,0.02866199053823948,0.10616373270750046,0.9939355850219727,0.0
6095001,0,4978,90.13800048828125,-0.7274180054664612,2.3210370540618896,155.6148223876953,0.6548470258712769,-0.05619899928569794,-0.08552099764347076,10.873261451721191,51.55665969848633,111.20980834960938,44.40644073486328,-1.7863645553588867,-1.1710052490234375,0.9920861721038818,0.11811673641204834,-0.04257184639573097,-0.1221117228269577,0.9865821599960327,-0.108370341360569,0.029200205579400063,0.1127113550901413,0.9931987524032593,0.0
6095011,0,4978,90.14399719238281,-0.4450649917125702,2.0291130542755127,147.6610870361328,0.6719509959220886,-0.05619899928569794,-0.08063399791717529,11.187153816223145,52.11437225341797,103.14434814453125,44.52647018432617,-2.7553510665893555,-7.9551544189453125,0.9919600486755371,0.1186504065990448,-0.04400281980633736,-0.12300339341163635,0.9857281446456909,-0.11493422091007233,0.02973775938153267,0.11942277103662491,0.992398202419281,0.0
6095021,0,4978,90.13200378417969,-0.43549299240112305,1.8041880130767822,150.78610229492188,0.681725025177002,-0.04398199915885925,-0.06597299873828888,11.569801330566406,52.76161575317383,105.53416442871094,45.248138427734375,-1.9099884033203125,3.1152801513671875,0.9918555021286011,0.11902491748332977,-0.045327216386795044,-0.12373965978622437,0.9848355054855347,-0.12160307914018631,0.030165983363986015,0.12622158229351044,0.9915434718132019,0.0
6095031,0,4979,90.13300323486328,-0.6652039885520935,1.7371890544891357,156.796875,0.681725025177002,-0.03420799970626831,-0.05619899928569794,11.92245864868164,53.33493423461914,110.4801254272461,46.30938720703125,-2.396395683288574,6.0145721435546875,0.9917662739753723,0.1192936971783638,-0.04655681923031807,-0.12437032163143158,0.9839088320732117,-0.1282774955034256,0.030504897236824036,0.13301169872283936,0.9906450510025024,0.0
6095041,0,4978,90.14800262451172,-0.7226319909095764,0.5407770276069641,156.796875,0.6768379807472229,-0.03176400065422058,-0.046424999833106995,12.144609451293945,53.592586517333984,109.40397644042969,47.39288330078125,-4.211087226867676,0.007354736328125,0.9916892051696777,0.11945950984954834,-0.047757796943187714,-0.12490388005971909,0.9829550385475159,-0.13490022718906403,0.03082858771085739,0.1397443562746048,0.9897077679634094,0.0
6095051,0,4978,90.13400268554688,-1.3926219940185547,0.564706027507782,144.26806640625,0.7061600089073181,0.012217000126838684,-0.00977300014346838,12.454584121704102,54.06749725341797,97.02613830566406,47.25723648071289,-3.0769357681274414,-12.528793334960938,0.9916766881942749,0.1192409098148346,-0.04855742305517197,-0.12501870095729828,0.9819602370262146,-0.1418592482805252,0.030765967443585396,0.14674922823905945,0.9886953234672546,0.0
6095061,0,4978,90.11599731445312,-1.0767699480056763,0.3397800028324127,156.796875,0.7134900093078613,0.012217000126838684,0.0,12.876507759094238,54.7072868347168,108.1759033203125,48.60566711425781,-1.6434211730957031,12.513504028320312,0.991675853729248,0.11891612410545349,-0.04936385527253151,-0.12503714859485626,0.9809175133705139,-0.14888301491737366,0.030717212706804276,0.1538161337375641,0.987622082233429,0.0
6095071,0,4978,90.11199951171875,-0.5168489813804626,0.009571000002324581,156.0120391845703,0.6743950247764587,0.0,0.0024429999757558107,13.302301406860352,55.45018005371094,107.03105926513672,48.981910705566406,-1.6844215393066406,-0.76953125,0.9916718602180481,0.11858055740594864,-0.050242651253938675,-0.125049889087677,0.9798885583877563,-0.15550079941749573,0.03079276531934738,0.16048875451087952,0.9865574240684509,0.0
6095081,0,4978,90.10399627685547,-0.8087739944458008,-0.17228299379348755,156.796875,0.6670640110969543,0.00977300014346838,0.012217000126838684,13.761298179626465,56.250736236572266,107.41114807128906,49.384761810302734,-1.3409757614135742,0.783905029296875,0.9916843175888062,0.11814619600772858,-0.05101325362920761,-0.12495190650224686,0.9788390398025513,-0.1620519906282425,0.0307878740131855,0.16707876324653625,0.9854629039764404,0.0
6095091,0,4978,90.08399963378906,-0.9140580296516418,-0.837486982345581,145.28262329101562,0.6499599814414978,0.0024429999757558107,0.026877999305725098,14.339181900024414,57.35148239135742,96.79795837402344,48.498748779296875,0.1330432891845703,-11.513290405273438,0.9917103052139282,0.1175699234008789,-0.051833007484674454,-0.12472256273031235,0.9777927994728088,-0.16841967403888702,0.030880792066454887,0.17348840832710266,0.9843517541885376,0.0
6095101,0,4978,90.08200073242188,-1.363908052444458,-0.9284150004386902,144.93804931640625,0.6426299810409546,0.019547000527381897,0.04398199915885925,14.89791202545166,58.266971588134766,96.399169921875,48.53931427001953,-0.26092052459716797,-0.3586578369140625,0.991765022277832,0.11682308465242386,-0.05247023329138756,-0.12429731339216232,0.9767390489578247,-0.17473019659519196,0.030837148427963257,0.17981335520744324,0.9832172989845276,0.0
6095111,0,4978,90.08100128173828,-1.2729809284210205,-1.7467600107192993,156.796875,0.6304119825363159,0.03665100038051605,0.05619899928569794,15.430376052856445,59.083919525146484,107.17758178710938,49.60478973388672,-0.7316169738769531,11.8583984375,0.9918427467346191,0.11595799773931503,-0.05291840434074402,-0.12372208386659622,0.975681722164154,-0.180935800075531,0.030650505796074867,0.18600720167160034,0.9820702075958252,0.0
6095121,0,4978,90.06900024414062,-0.6699900031089783,-2.8761720657348633,156.796875,0.5937600135803223,0.051311999559402466,0.07330299913883209,16.01842498779297,60.13389587402344,107.16313171386719,49.63372802734375,-0.10836219787597656,0.014495849609375,0.991947591304779,0.11494042724370956,-0.05317286401987076,-0.12295190244913101,0.9746743440628052,-0.18679535388946533,0.030355824157595634,0.19182905554771423,0.9809587597846985,0.0
6095131,0,4978,90.0530014038086,-0.39720800518989563,-3.3499510288238525,156.74423217773438,0.559552013874054,0.051311999559402466,0.08552099764347076,16.68877601623535,61.37577819824219,107.33209228515625,49.41218948364258,0.8463134765625,-0.0526275634765625,0.9920657277107239,0.11381842195987701,-0.053381770849227905,-0.12206090986728668,0.9737123250961304,-0.19231541454792023,0.030089396983385086,0.19730551540851593,0.979880154132843,0.0
6095141,0,4978,90.04299926757812,-0.8614159822463989,-3.196810007095337,156.796875,0.5302299857139587,0.06841599941253662,0.10751199722290039,17.393163681030273,62.677154541015625,107.6722640991211,49.124549865722656,1.133626937866211,0.0525970458984375,0.992216944694519,0.11249317973852158,-0.053380876779556274,-0.12092097103595734,0.9728030562400818,-0.19756518304347992,0.029704300686717033,0.20248253643512726,0.9788352251052856,0.0
6095151,0,4978,90.03700256347656,-0.9188429713249207,-4.177867889404297,156.796875,0.5033519864082336,0.08307699859142303,0.11972899734973907,18.100414276123047,63.95473098754883,107.9290771484375,48.86779022216797,0.9984226226806641,6.103515625e-05,0.992388129234314,0.11106136441230774,-0.05319703742861748,-0.11963073164224625,0.9719337821006775,-0.2025657743215561,0.029206719249486923,0.2073880136013031,0.9778227210044861,0.0
6095161,0,4978,90.04199981689453,-1.5218350887298584,-4.192224979400635,156.796875,0.47158700227737427,0.09040799736976624,0.13927699625492096,18.729814529418945,64.99244689941406,107.87594604492188,48.92093276977539,-0.20666122436523438,0.0,0.9925827980041504,0.10945339500904083,-0.052897606045007706,-0.11813288182020187,0.9711267352104187,-0.20726118981838226,0.02868478186428547,0.21197298169136047,0.9768545031547546,0.0
6095171,0,4978,90.03600311279297,-1.1437690258026123,-4.752144813537598,156.796875,0.4324919879436493,0.09285099804401398,0.16615499556064606,19.365266799926758,66.01805877685547,107.8080062866211,48.988861083984375,-0.2641620635986328,0.0,0.9928052425384521,0.10760051757097244,-0.05252311751246452,-0.11636630445718765,0.9704095125198364,-0.2115749716758728,0.028203316032886505,0.21616481244564056,0.9759495258331299,0.0
6095181,0,4978,90.03600311279297,-0.47377800941467285,-5.168496131896973,155.6004638671875,0.3787359893321991,0.10751199722290039,0.21746699512004852,19.962406158447266,66.9130859375,106.46759033203125,49.13433074951172,-0.9098663330078125,-1.1964111328125,0.9930860996246338,0.10526788979768753,-0.0519365631043911,-0.11406822502613068,0.9698452353477478,-0.21537964046001434,0.02769780158996582,0.21981500089168549,0.9751483798027039,0.0
6095191,0,4978,90.0260009765625,-0.6747750043869019,-5.709273815155029,156.796875,0.30298900604248047,0.10262499749660492,0.26144999265670776,20.59588050842285,67.86815643310547,107.43254852294922,49.36286163330078,-0.5448799133300781,1.1949462890625,0.9934040904045105,0.10253917425870895,-0.051309894770383835,-0.11135183274745941,0.9694764018058777,-0.2184400111436844,0.027345025911927223,0.22271282970905304,0.9745005369186401,0.0
6095201,0,4978,90.0199966430664,0.6412760019302368,-5.642274856567383,145.72767639160156,0.23457199335098267,0.05619899928569794,0.2981019914150238,21.234375,68.82049560546875,97.0414047241211,48.69980239868164,-0.6057395935058594,-11.067733764648438,0.993727445602417,0.09948182106018066,-0.05106629058718681,-0.1083802655339241,0.9692825078964233,-0.22078260779380798,0.02753375470638275,0.2249324917793274,0.9739852547645569,0.0
6095211,0,4978,90.02100372314453,0.8518440127372742,-5.656631946563721,156.796875,0.21258099377155304,0.07330299913883209,0.34941399097442627,21.825862884521484,69.51936340332031,106.91831970214844,49.86503982543945,-1.3504676818847656,11.0556640625,0.9940996766090393,0.09592542052268982,-0.050623223185539246,-0.10487277060747147,0.96917724609375,-0.22292837500572205,0.027678318321704865,0.22692221403121948,0.973519504070282,0.0
6095221,0,4978,90.02100372314453,1.263409972190857,-5.785844802856445,156.796875,0.15882399678230286,0.07574699819087982,0.38362300395965576,22.379785537719727,70.19637298583984,106.42948913574219,50.36737060546875,-1.9494380950927734,0.013519287109375,0.99449223279953,0.09205566346645355,-0.05009713023900986,-0.10102715343236923,0.969210684299469,-0.2245531678199768,0.02788320928812027,0.22837771475315094,0.9731732606887817,0.0
6095231,0,4978,90.0199966430664,-0.22970999777317047,-5.876771926879883,156.796875,0.1148419976234436,0.07085999846458435,0.41538798809051514,22.905595779418945,70.7752685546875,105.80899047851562,50.987884521484375,-2.4128761291503906,1.52587890625e-05,0.9948951601982117,0.08789119124412537,-0.049573346972465515,-0.09688332676887512,0.9693570733070374,-0.22574423253536224,0.02821328118443489,0.2293948382139206,0.9729244709014893,0.0
6095241,0,4978,90.01799774169922,-0.11485499888658524,-5.718845844268799,156.796875,0.08063399791717529,0.06841599941253662,0.43004900217056274,23.41180419921875,71.28013610839844,105.10176849365234,51.69510269165039,-2.7500476837158203,0.0,0.9952917098999023,0.08359666168689728,-0.04903938248753548,-0.09260150045156479,0.9695761203765869,-0.22659888863563538,0.02860443852841854,0.23007327318191528,0.9727528095245361,0.0
6095251,0,4978,90.00199890136719,0.34935200214385986,-5.565704822540283,156.796875,-0.00977300014346838,0.04398199915885925,0.47647398710250854,24.00132179260254,71.98735809326172,104.66226196289062,52.134605407714844,-1.7090225219726562,0.0,0.9956944584846497,0.07888279855251312,-0.048671264201402664,-0.08792313188314438,0.970022439956665,-0.22655227780342102,0.029341071844100952,0.22985634207725525,0.9727821350097656,0.0
6095261,0,4978,90.01399993896484,0.8183450102806091,-6.0729827880859375,156.796875,-0.06352899968624115,0.03420799970626831,0.510683000087738,24.46544075012207,72.33590698242188,103.7698745727539,53.02699279785156,-3.470081329345703,0.0,0.9960954189300537,0.07385240495204926,-0.04835968092083931,-0.08293264359235764,0.9705967903137207,-0.2259739190340042,0.030248967930674553,0.22910235822200775,0.9729321599006653,0.0
6095271,0,4978,90.00399780273438,0.3014949858188629,-5.446063995361328,156.796875,-0.10751199722290039,0.03665100038051605,0.5375609993934631,24.970863342285156,72.77680969238281,103.0069580078125,53.789913177490234,-2.9666309356689453,0.0,0.9964903593063354,0.06857317686080933,-0.04799552634358406,-0.07767273485660553,0.9712652564048767,-0.22496873140335083,0.031189506873488426,0.22790729999542236,0.9731830954551697,0.0
6095281,0,4978,90.00599670410156,-0.043069999665021896,-5.804986953735352,156.796875,-0.13683299720287323,0.03665100038051605,0.5644389986991882,25.42770004272461,73.06843566894531,102.06295776367188,54.733909606933594,-3.6707611083984375,0.0,0.9968739151954651,0.06303759664297104,-0.04761769622564316,-0.07214827090501785,0.9719895720481873,-0.22367635369300842,0.03218381851911545,0.22641286253929138,0.9734994769096375,0.0
6095291,0,4978,89.9990005493164,-0.5790629982948303,-4.862215042114258,156.796875,-0.17837199568748474,0.024434000253677368,0.5913169980049133,25.90427589416504,73.39573669433594,101.17665100097656,55.62022399902344,-3.4464473724365234,0.0,0.9972360134124756,0.0572512187063694,-0.047344233840703964,-0.06638582050800323,0.972791314125061,-0.22196893393993378,0.03334800899028778,0.22449859976768494,0.9739035964012146,0.0
6095301,0,4978,89.98100280761719,-0.4259220063686371,-3.675374984741211,156.796875,-0.20769399404525757,0.02932099997997284,0.6084210276603699,26.485631942749023,73.98580932617188,100.6375732421875,56.159305572509766,-2.096233367919922,0.0,0.9975751042366028,0.05130547657608986,-0.04701643064618111,-0.06044158339500427,0.9736309051513672,-0.21997679769992828,0.03449058160185814,0.22228533029556274,0.9743713736534119,0.0
6095311,0,4977,89.98600006103516,0.023927999660372734,-4.594219207763672,156.796875,-0.25411900877952576,0.012217000126838684,0.6279690265655518,26.990474700927734,74.3501205444336,99.81678771972656,56.98008728027344,-3.1916427612304688,0.0,0.9978789687156677,0.04518402740359306,-0.04684925079345703,-0.05433952435851097,0.9745422005653381,-0.21751950681209564,0.03582810238003731,0.21960411965847015,0.9749308824539185,0.0
6095321,0,4978,89.98799896240234,0.3445659875869751,-4.642075061798096,156.796875,-0.3200930058956146,0.0048859999515116215,0.6719509959220886,27.445362091064453,74.5629653930664,98.8128662109375,57.98400115966797,-3.9037628173828125,0.0,0.9981582164764404,0.03865233063697815,-0.04674353823065758,-0.04781849682331085,0.9755720496177673,-0.21441246569156647,0.03731408342719078,0.21625298261642456,0.9756239652633667,0.0
6095331,0,4978,90.00399780273438,0.602990984916687,-3.282952070236206,156.796875,-0.33475399017333984,-0.0024429999757558107,0.6939420104026794,27.747028350830078,74.35038757324219,97.2779541015625,59.5189208984375,-5.968576431274414,0.0,0.9983974695205688,0.031906016170978546,-0.04672696441411972,-0.04109147563576698,0.9765883684158325,-0.2111559808254242,0.03889581188559532,0.21273787319660187,0.9763347506523132,0.0
6095341,0,4977,90.02200317382812,-0.14835500717163086,-2.0721840858459473,156.796875,-0.34941399097442627,-0.0048859999515116215,0.7134900093078613,27.89253044128418,73.71066284179688,95.21659851074219,61.580265045166016,-8.01559829711914,0.0,0.998593807220459,0.024969877675175667,-0.04675344377756119,-0.034171268343925476,0.9775844216346741,-0.20775267481803894,0.040517814457416534,0.20905834436416626,0.9770632982254028,0.0
6095351,0,4977,89.98400115966797,0.1435689926147461,-1.5792620182037354,156.796875,-0.38362300395965576,-0.0048859999515116215,0.7232639789581299,28.304079055786133,73.77931213378906,94.08717346191406,62.70970153808594,-4.391843795776367,1.52587890625e-05,0.9987425804138184,0.01795102469623089,-0.04679685831069946,-0.027147896587848663,0.9785919785499573,-0.20401215553283691,0.042132746428251266,0.20502625405788422,0.9778490662574768,0.0
6095361,0,4977,90.00199890136719,-0.02871299907565117,-1.9333999156951904,156.796875,-0.4056139886379242,-0.017103999853134155,0.7403680086135864,28.548242568969727,73.38728332519531,92.38325500488281,64.41361999511719,-6.625738143920898,0.0,0.9988369345664978,0.010771217755973339,-0.04698628932237625,-0.019974060356616974,0.9795821309089661,-0.20005053281784058,0.04387209191918373,0.20075656473636627,0.9786581993103027,0.0
6095371,0,4978,90.00700378417969,0.22970999777317047,-2.3162519931793213,156.796875,-0.4202750027179718,-0.03176400065422058,0.7599160075187683,28.733863830566406,72.83234405517578,90.49284362792969,66.30402374267578,-7.350883483886719,0.0,0.9988720417022705,0.0034037060104310513,-0.04735053330659866,-0.012629491277039051,0.980534553527832,-0.19594070315361023,0.045761838555336,0.1963178664445877,0.9794718027114868,0.0
6095381,0,4977,90.01799774169922,-0.5886340141296387,-1.205981969833374,156.796875,-0.4202750027179718,-0.04153800010681152,0.7745760083198547,28.820032119750977,72.00758361816406,88.28169250488281,68.51517486572266,-8.598119735717773,0.0,0.9988459348678589,-0.004108480177819729,-0.04784354567527771,-0.005151502788066864,0.9814150333404541,-0.19182908535003662,0.04774243012070656,0.1918543130159378,0.9802614450454712,0.0
6095391,0,4977,90.02400207519531,-1.3399800062179565,1.0001989603042603,156.796875,-0.4202750027179718,-0.026877999305725098,0.7941240072250366,28.848133087158203,71.02775573730469,85.90057373046875,70.89630126953125,-9.25905990600586,0.0,0.998766303062439,-0.01181368250399828,-0.04822197183966637,0.0025547659024596214,0.9822198748588562,-0.18771785497665405,0.04958213120698929,0.18736322224140167,0.981038510799408,0.0
6095401,0,4977,90.01000213623047,-1.5888340473175049,1.3543369770050049,156.796875,-0.4349350035190582,-0.03176400065422058,0.8038979768753052,28.967145919799805,70.29379272460938,83.86419677734375,72.93267059326172,-7.918479919433594,0.0,0.9986213445663452,-0.01960674673318863,-0.048683904111385345,0.01035561878234148,0.9829723834991455,-0.18346232175827026,0.05145192891359329,0.1827053725719452,0.9818204045295715,0.0
6095411,0,4977,90.02300262451172,-1.4787640571594238,1.2825520038604736,156.796875,-0.4178310036659241,-0.03176400065422058,0.8112279772758484,28.975433349609375,69.26321411132812,81.47468566894531,75.32218933105469,-9.291707992553711,0.0,0.9984117150306702,-0.027477886527776718,-0.04917566478252411,0.018235763534903526,0.9836119413375854,-0.1793750375509262,0.053298525512218475,0.17819352447986603,0.982550859451294,0.0
6095421,0,4977,90.0199966430664,-1.373479962348938,1.095911979675293,156.796875,-0.427605003118515,-0.046424999833106995,0.8307759761810303,28.995391845703125,68.26783752441406,79.16071319580078,77.63616180419922,-8.997945785522461,0.0,0.9981239438056946,-0.035534895956516266,-0.049849916249513626,0.026288781315088272,0.9841827750205994,-0.17519547045230865,0.05528689920902252,0.17355646193027496,0.9832707643508911,0.0
6095431,0,4977,90.01000213623047,-0.7130609750747681,0.9236289858818054,156.796875,-0.398283988237381,-0.021990999579429626,0.8503239750862122,29.07749366760254,67.4424819946289,77.0936508178711,79.70321655273438,-8.037801742553711,0.0,0.9977728128433228,-0.04379662126302719,-0.050303295254707336,0.03458288684487343,0.9846120476722717,-0.17129939794540405,0.05703146755695343,0.16917841136455536,0.9839338660240173,0.0
6095441,0,4977,90.00800323486328,-0.875773012638092,1.6606180667877197,156.796875,-0.390953004360199,-0.026877999305725098,0.8649839758872986,29.16031265258789,66.62071990966797,75.05763244628906,81.73924255371094,-7.917150497436523,0.0,0.9973413944244385,-0.05220302939414978,-0.05083484202623367,0.043017420917749405,0.9849370121955872,-0.16747839748859406,0.05881190672516823,0.1648465245962143,0.9845641255378723,0.0
6095451,0,4977,90.01000213623047,-1.6031910181045532,3.2638099193573,156.796875,-0.36896198987960815,-0.026877999305725098,0.8894190192222595,29.214590072631836,65.7245101928711,72.95244598388672,83.84442138671875,-8.186046600341797,0.0,0.9968223571777344,-0.060858104377985,-0.051387012004852295,0.05169615149497986,0.985125720500946,-0.1638759821653366,0.06059575825929642,0.16069889068603516,0.9851415157318115,0.0
6095461,0,4977,90.0270004272461,-2.1056830883026123,3.8428730964660645,156.796875,-0.3323099911212921,-0.017103999853134155,0.9089670181274414,29.132339477539062,64.46631622314453,70.41146087646484,86.38541412353516,-9.880731582641602,0.0,0.9962177872657776,-0.069720059633255,-0.05184982344508171,0.06058546155691147,0.9851535558700562,-0.16063179075717926,0.06227922439575195,0.15688307583332062,0.985651433467865,0.0
6095471,0,4977,89.99700164794922,-1.5792620182037354,3.7136600017547607,156.796875,-0.31520599126815796,-0.021990999579429626,0.9285140037536621,29.26458740234375,63.790443420410156,68.64734649658203,88.14952850341797,-6.859807968139648,0.0,0.9955148696899414,-0.07877802848815918,-0.05237807705998421,0.0696599930524826,0.9850495457649231,-0.15756163001060486,0.06400734186172485,0.1532064527273178,0.9861189723014832,0.0
6095481,0,4977,90.02799987792969,-1.990828037261963,4.484148979187012,156.796875,-0.3103190064430237,-0.03420799970626831,0.9382879734039307,29.153182983398438,62.463531494140625,66.07353210449219,90.72334289550781,-10.008342742919922,0.0,0.9947128295898438,-0.08792697638273239,-0.05305216833949089,0.0788111686706543,0.9848366379737854,-0.15455186367034912,0.06583695113658905,0.14955377578735352,0.9865591526031494,0.0
6095491,0,4977,89.98799896240234,-2.1774680614471436,2.1631109714508057,156.796875,-0.30298900604248047,-0.012217000126838684,0.9309579730033875,29.333919525146484,61.928123474121094,64.54443359375,92.25242614746094,-5.945917129516602,0.0,0.9938437342643738,-0.09699735045433044,-0.05352861061692238,0.08792261779308319,0.9845239520072937,-0.15160056948661804,0.06740500032901764,0.14596107602119446,0.9869912266731262,0.0
6095501,0,4977,90.00299835205078,-3.440877914428711,5.106283187866211,156.796875,-0.21258099377155304,0.03176400065422058,0.9334009885787964,29.38235092163086,61.038063049316406,62.58153533935547,94.21533203125,-7.632820129394531,1.52587890625e-05,0.992911159992218,-0.10613132268190384,-0.053503576666116714,0.09712084382772446,0.9839803576469421,-0.14950154721736908,0.06851320713758469,0.1432456225156784,0.9873126745223999,0.0
6095511,0,4977,90.01799774169922,-3.6466610431671143,5.259424209594727,156.796875,-0.1832589954137802,0.03665100038051605,0.9334009885787964,29.309383392333984,59.82774353027344,60.23430633544922,96.56256103515625,-9.127269744873047,0.0,0.9918962121009827,-0.11527204513549805,-0.05341709405183792,0.10632017999887466,0.983303427696228,-0.14768506586551666,0.06954912096261978,0.14080911874771118,0.9875907301902771,0.0
6095521,0,4977,89.98999786376953,-1.5409770011901855,5.848057746887207,156.796875,-0.12950299680233002,0.053755998611450195,0.9553930163383484,29.438486099243164,59.16712188720703,58.619789123535156,98.17707824707031,-6.278104782104492,0.0,0.9907776713371277,-0.12464983761310577,-0.05311368405818939,0.115753173828125,0.9824334979057312,-0.14637665450572968,0.07042644172906876,0.13887880742549896,0.9878018498420715,0.0
6095531,0,4977,89.99400329589844,-1.3782650232315063,5.38385009765625,156.796875,-0.09040799736976624,0.07818999886512756,0.9700530171394348,29.52106475830078,58.3837890625,56.869056701660156,99.92782592773438,-6.807807922363281,0.0,0.9895628094673157,-0.1341828852891922,-0.05253037437796593,0.12535615265369415,0.9813967347145081,-0.14541949331760406,0.07106589525938034,0.13731688261032104,0.9879744052886963,0.0
6095541,0,4977,89.99700164794922,-2.5603199005126953,4.996212959289551,156.796875,-0.053755998611450195,0.07330299913883209,0.9847139716148376,29.56719970703125,57.50666427612305,55.020782470703125,101.77609252929688,-7.187030792236328,0.0,0.9882315993309021,-0.14386828243732452,-0.051953867077827454,0.13508446514606476,0.9801934957504272,-0.144822359085083,0.0717601403594017,0.13610005378723145,0.9880926012992859,0.0
6095551,0,4977,89.98799896240234,-2.134397029876709,5.221138000488281,156.796875,0.0,0.08063399791717529,0.9896010160446167,29.670448303222656,56.78752136230469,53.398101806640625,103.39875793457031,-6.309812545776367,0.0,0.9868010878562927,-0.15361642837524414,-0.051230985671281815,0.14485833048820496,0.9788095951080322,-0.14473578333854675,0.07237912714481354,0.13540437817573547,0.9881430268287659,0.0
6095561,0,4977,90.01000213623047,-1.7419739961624146,5.809772968292236,156.796875,0.03420799970626831,0.0879639983177185,1.0115920305252075,29.594419479370117,55.59208679199219,51.18730163574219,105.60956573486328,-8.59676742553711,1.52587890625e-05,0.9852415323257446,-0.16358403861522675,-0.05038250610232353,0.15484340488910675,0.9772456288337708,-0.14496555924415588,0.0729500949382782,0.13502487540245056,0.9881529808044434,0.0
6095571,0,4977,89.99099731445312,-1.756330966949463,6.082554817199707,156.796875,0.07085999846458435,0.09773799777030945,1.014035940170288,29.654836654663086,54.771766662597656,49.484283447265625,107.31257629394531,-6.622200012207031,0.0,0.9835813045501709,-0.1735774278640747,-0.04937374219298363,0.16485026478767395,0.9755236506462097,-0.14552897214889526,0.07342574745416641,0.13500046730041504,0.9881210923194885,0.0
6095581,0,4976,89.99299621582031,-1.0289130210876465,5.790629863739014,156.796875,0.10506799817085266,0.09285099804401398,1.0335830450057983,29.687728881835938,53.88296890258789,47.71552276611328,109.08135986328125,-6.877941131591797,1.52587890625e-05,0.9817808270454407,-0.1837613582611084,-0.048346128314733505,0.17502282559871674,0.973615825176239,-0.14642366766929626,0.0739775225520134,0.13529442250728607,0.9880396723747253,0.0
6095591,0,4977,89.99400329589844,-0.9236289858818054,5.067997932434082,156.796875,0.20036299526691437,0.11239899694919586,1.0604610443115234,29.70218849182129,52.95119094848633,45.914405822753906,110.88246154785156,-7.003664016723633,0.0,0.9798312783241272,-0.194233700633049,-0.04693726450204849,0.1854654997587204,0.9714114665985107,-0.1481989175081253,0.07438056915998459,0.13650482892990112,0.9878429770469666,0.0
6095601,0,4976,89.9800033569336,-0.7082750201225281,5.737987995147705,156.796875,0.22479799389839172,0.09529399871826172,1.0775660276412964,29.813934326171875,52.286781311035156,44.478118896484375,112.31875610351562,-5.585071563720703,0.0,0.9777266383171082,-0.20486058294773102,-0.04562787339091301,0.19602631032466888,0.9690231084823608,-0.15022823214530945,0.07499025762081146,0.1379380226135254,0.9875978231430054,0.0
6095611,0,4976,89.99299621582031,-0.49292099475860596,5.594419002532959,156.796875,0.27611100673675537,0.10262499749660492,1.0873390436172485,29.8116455078125,51.32096862792969,42.67488098144531,114.12199401855469,-7.011938095092773,0.0,0.9754887819290161,-0.21557942032814026,-0.04411676153540611,0.2066679745912552,0.9664183259010315,-0.15272442996501923,0.07555942982435226,0.13986358046531677,0.9872835874557495,0.0
6095621,0,4976,89.97200012207031,-0.6460620164871216,5.087140083312988,156.796875,0.27611100673675537,0.07818999886512756,1.1019999980926514,29.961130142211914,50.76914596557617,41.423919677734375,115.37295532226562,-4.864404678344727,0.0,0.9730896949768066,-0.22641204297542572,-0.04281598702073097,0.21738676726818085,0.9636595249176025,-0.15525484085083008,0.07641154527664185,0.14176936447620392,0.9869461059570312,0.0
6095631,0,4976,89.947998046875,-0.6747750043869019,3.9720849990844727,156.796875,0.31520599126815796,0.06108599901199341,1.1166609525680542,30.277799606323242,50.66691589355469,40.76367950439453,116.0331802368164,-2.5673294067382812,0.0,0.9705286622047424,-0.23737281560897827,-0.04156225919723511,0.22819019854068756,0.9606809020042419,-0.1581839621067047,0.07747659832239151,0.14403806626796722,0.9865344762802124,0.0
6095641,0,4976,89.947998046875,0.9858419895172119,2.967100143432617,156.796875,0.3665190041065216,0.06597299873828888,1.1362090110778809,30.569677352905273,50.49459457397461,40.02228546142578,116.77457427978516,-2.882944107055664,1.52587890625e-05,0.9677982926368713,-0.2485102266073227,-0.04010291397571564,0.23915599286556244,0.9574432373046875,-0.16157813370227814,0.0785500556230545,0.14678429067134857,0.986044704914093,0.0
6095651,0,4976,89.96900177001953,1.9381859302520752,2.622533082962036,156.796875,0.3738490045070648,0.017103999853134155,1.1728609800338745,30.677358627319336,49.8268928527832,38.6571044921875,118.13976287841797,-5.308557510375977,1.52587890625e-05,0.9648266434669495,-0.2599678337574005,-0.03905725106596947,0.2503562271595001,0.9539654850959778,-0.16514316201210022,0.08019114285707474,0.14955638349056244,0.985495924949646,0.0
6095661,0,4976,89.95800018310547,2.076970100402832,1.5314059257507324,156.796875,0.37629199028015137,0.0048859999515116215,1.1948519945144653,30.854801177978516,49.35017395019531,37.55352020263672,119.24334716796875,-4.291328430175781,0.0,0.9616566300392151,-0.2715984582901001,-0.03807973489165306,0.2617039084434509,0.9502819180488586,-0.16874822974205017,0.08201818913221359,0.15231230854988098,0.9849233031272888,0.0
6095671,0,4976,89.93800354003906,0.49292099475860596,0.09571199864149094,156.796875,0.38362300395965576,-0.02932099997997284,1.2070690393447876,31.167390823364258,49.23680114746094,36.92852783203125,119.86833953857422,-2.430318832397461,0.0,0.9583007097244263,-0.2833070158958435,-0.03736606240272522,0.27306386828422546,0.9464039206504822,-0.17250031232833862,0.08423389494419098,0.1551039069890976,0.984300434589386,0.0
6095681,0,4976,89.89600372314453,0.7561309933662415,-0.31106600165367126,156.796875,0.38362300395965576,-0.04398199915885925,1.2217299938201904,31.776628494262695,49.91374206542969,37.32182312011719,119.47505187988281,1.5293121337890625,0.0,0.9547555446624756,-0.2951117157936096,-0.0367460623383522,0.28448745608329773,0.9423332810401917,-0.1762821525335312,0.08664993941783905,0.1578526347875595,0.9836534857749939,0.0
6095691,0,4976,89.89199829101562,0.5982049703598022,-1.0911270380020142,156.796875,0.37629199028015137,-0.048868998885154724,1.238834023475647,32.376953125,50.55261993408203,37.66143035888672,119.13543701171875,1.3205757141113281,0.0,0.9510127902030945,-0.30702996253967285,-0.03614712879061699,0.29601043462753296,0.9380717873573303,-0.17999912798404694,0.08917371183633804,0.16048163175582886,0.9830023050308228,0.0
6095701,0,4976,89.87300109863281,1.4452639818191528,-2.2157530784606934,156.796875,0.351857990026474,-0.07085999846458435,1.2608250379562378,33.08335494995117,51.46147918701172,38.34184265136719,118.45503997802734,2.6457252502441406,0.0,0.9470452666282654,-0.3190986216068268,-0.03578589856624603,0.30764344334602356,0.9336314797401428,-0.18354393541812897,0.09197944402694702,0.16281519830226898,0.9823598265647888,0.0
6095711,0,4976,89.9000015258789,1.7706880569458008,-3.7902300357818604,156.796875,0.3176490068435669,-0.10751199722290039,1.2852599620819092,33.5385627746582,51.68087387084961,38.13215637207031,118.66471862792969,-0.8153419494628906,0.0,0.942832350730896,-0.33133387565612793,-0.03583609685301781,0.3193764388561249,0.9290187358856201,-0.18687821924686432,0.09521149843931198,0.16474971175193787,0.9817291498184204,0.0
6095721,0,4976,89.88899993896484,-0.6077759861946106,-4.0199408531188965,156.796875,0.26633700728416443,-0.10262499749660492,1.3292419910430908,34.045654296875,52.03110885620117,38.09242248535156,118.7044448852539,-0.15450668334960938,0.0,0.9383134841918945,-0.34390872716903687,-0.035968948155641556,0.33146214485168457,0.9241968393325806,-0.1897198110818863,0.0984886884689331,0.16609439253807068,0.9811791181564331,0.0
6095731,0,4976,89.86799621582031,-1.0145560503005981,-3.924229145050049,156.796875,0.2565630078315735,-0.10262499749660492,1.3512330055236816,34.67845916748047,52.70783233642578,38.47056579589844,118.32630157470703,1.4704017639160156,0.0,0.933549702167511,-0.35662469267845154,-0.03609703481197357,0.3436819911003113,0.9191506505012512,-0.1924714893102646,0.10181869566440582,0.16727587580680847,0.980638325214386,0.0
6095741,0,4976,89.86599731445312,-0.9906280040740967,-4.206582069396973,156.796875,0.18081599473953247,-0.16371099650859833,1.3732240200042725,35.2852668762207,53.30064392089844,38.736610412597656,118.06026458740234,1.03448486328125,0.0,0.928510844707489,-0.36945295333862305,-0.03703046962618828,0.3559136390686035,0.9140028357505798,-0.19474288821220398,0.10579430311918259,0.1676413118839264,0.9801549315452576,0.0
6095751,0,4976,89.84500122070312,-0.9044860005378723,-4.9770708084106445,156.796875,0.14416399598121643,-0.14416399598121643,1.3952150344848633,36.01253890991211,54.20243835449219,39.39423370361328,117.40264129638672,2.557170867919922,0.0,0.9232184886932373,-0.3824019134044647,-0.03788835555315018,0.36830857396125793,0.9086745381355286,-0.19662101566791534,0.10961645841598511,0.16756963729858398,0.9797471165657043,0.0
6095761,0,4976,89.87200164794922,-1.062412977218628,-6.049055099487305,156.796875,0.10506799817085266,-0.1417199969291687,1.4123200178146362,36.48698806762695,54.41037368774414,39.15644836425781,117.64042663574219,-0.9246330261230469,0.0,0.9176784157752991,-0.39541926980018616,-0.03884865343570709,0.38078543543815613,0.9031837582588196,-0.19814680516719818,0.11343855410814285,0.16704213619232178,0.9794021248817444,0.0
6095771,0,4976,89.85600280761719,-1.0767699480056763,-5.991626739501953,156.796875,0.07574699819087982,-0.11972899734973907,1.4391980171203613,37.04998779296875,54.84723663330078,39.21435546875,117.58251190185547,0.225189208984375,0.0,0.9118528962135315,-0.4085918068885803,-0.03970319405198097,0.3934669494628906,0.8974683880805969,-0.19933629035949707,0.11707954853773117,0.16614356637001038,0.9791263937950134,0.0
6095781,0,4976,89.85099792480469,-2.5316059589385986,-6.522833824157715,156.796875,0.053755998611450195,-0.08552099764347076,1.4538580179214478,37.61298751831055,55.27298355102539,39.25731658935547,117.53955078125,0.16703414916992188,0.0,0.9057897329330444,-0.42180395126342773,-0.04032037407159805,0.4062630832195282,0.8915544152259827,-0.200203999876976,0.12039466202259064,0.16496212780475616,0.9789240956306458,0.0
6095791,0,4975,89.83899688720703,-3.134597063064575,-4.867001056671143,156.796875,-0.10262499749660492,-0.15149399638175964,1.4856230020523071,38.22933578491211,55.830467224121094,39.46812438964844,117.3287353515625,0.8197441101074219,0.0,0.8993693590164185,-0.4351483881473541,-0.04218992590904236,0.4191233515739441,0.8856359124183655,-0.1999630481004715,0.12437853962182999,0.16215793788433075,0.9788945913314819,0.0
6095801,0,4976,89.83699798583984,-2.6177470684051514,-4.9004998207092285,156.796875,-0.08307699859142303,-0.07330299913883209,1.4953969717025757,38.81980895996094,56.30591583251953,39.571388244628906,117.2254867553711,0.4014892578125,1.52587890625e-05,0.892738938331604,-0.4484905004501343,-0.043275561183691025,0.43213677406311035,0.8794445991516113,-0.19958852231502533,0.12757204473018646,0.159479558467865,0.9789236187934875,0.0
6095811,0,4976,89.82599639892578,-2.5938191413879395,-5.273780822753906,156.796875,-0.14660699665546417,-0.09285099804401398,1.5173879861831665,39.454376220703125,56.887596130371094,39.809112548828125,116.98775482177734,0.9244155883789062,0.0,0.8857990503311157,-0.4618978202342987,-0.04482962563633919,0.4452108144760132,0.8730880618095398,-0.19875870645046234,0.13094648718833923,0.15610173344612122,0.9790225625038147,0.0
6095821,0,4975,89.8290023803711,-2.550747871398926,-4.603789806365967,156.796875,-0.19791999459266663,-0.05619899928569794,1.544266939163208,40.02370071411133,57.28156280517578,39.80384826660156,116.9930191040039,-0.020481109619140625,0.0,0.8785444498062134,-0.4754091501235962,-0.046313222497701645,0.4584943652153015,0.8665104508399963,-0.19733957946300507,0.13394798338413239,0.15213732421398163,0.9792405366897583,0.0
6095831,0,4975,89.86199951171875,-3.4456639289855957,-3.7088749408721924,156.796875,-0.1832589954137802,-0.007329999934881926,1.5687010288238525,40.30140686035156,56.88492202758789,38.787986755371094,118.0088882446289,-3.9502525329589844,0.0,0.8709850311279297,-0.4890245199203491,-0.047320518642663956,0.4719817638397217,0.8595811128616333,-0.19584143161773682,0.13644714653491974,0.1482406109571457,0.9794931411743164,0.0
6095841,0,4975,89.83200073242188,-3.6945180892944336,-2.0530409812927246,156.796875,-0.20036299526691437,0.017103999853134155,1.5882489681243896,40.783973693847656,57.036827087402344,38.48634338378906,118.31053161621094,-1.1729736328125,0.0,0.8631266355514526,-0.5026787519454956,-0.04822438210248947,0.4855736494064331,0.8523765802383423,-0.19409476220607758,0.13867270946502686,0.14411194622516632,0.9797967076301575,0.0
6095851,0,4976,89.83699798583984,-3.2542381286621094,-1.5840480327606201,156.796875,-0.21502399444580078,-0.014659999869763851,1.602910041809082,41.193424224853516,56.986122131347656,37.929534912109375,118.8673324584961,-2.1651649475097656,0.0,0.8549616932868958,-0.5163225531578064,-0.04950370639562607,0.4991120994091034,0.8449096083641052,-0.19239336252212524,0.14116324484348297,0.1397811323404312,0.9800684452056885,0.0
6095861,0,4976,89.8489990234375,-3.0101699829101562,-1.0097709894180298,156.796875,-0.2516759932041168,0.021990999579429626,1.6371179819107056,41.4797477722168,56.601959228515625,36.953575134277344,119.84329986572266,-3.7950897216796875,0.0,0.8464164137840271,-0.5301026701927185,-0.050690412521362305,0.5128867030143738,0.8371169567108154,-0.19021756947040558,0.14326870441436768,0.1350049078464508,0.980432391166687,0.0
6095871,0,4976,89.83699798583984,-3.8763718605041504,0.043069999665021896,156.796875,-0.2516759932041168,0.053755998611450195,1.6639959812164307,41.8327751159668,56.3968505859375,36.218971252441406,120.57788848876953,-2.8565139770507812,0.0,0.837517261505127,-0.5439637899398804,-0.05164548009634018,0.5268145203590393,0.8289526104927063,-0.18789462745189667,0.14501959085464478,0.130157470703125,0.9808304309844971,0.0
6095881,0,4975,89.81199645996094,-3.775874137878418,0.7322030067443848,156.796875,-0.2492319941520691,0.058642998337745667,1.678657054901123,42.34849166870117,56.62514877319336,36.047821044921875,120.7490463256836,-0.6655845642089844,1.52587890625e-05,0.8283103108406067,-0.557795524597168,-0.0525851733982563,0.5407329797744751,0.8204682469367981,-0.18558013439178467,0.14666031301021576,0.12528346478939056,0.9812210202217102,0.0
6095891,0,4975,89.8239974975586,-3.8859429359436035,2.86660099029541,156.796875,-0.23212799429893494,0.06108599901199341,1.7079780101776123,42.735755920410156,56.502079010009766,35.4296875,121.3671875,-2.4036636352539062,0.0,0.8187069296836853,-0.5717179179191589,-0.053447313606739044,0.5547483563423157,0.8115519881248474,-0.1834062784910202,0.14823201298713684,0.12050623446702957,0.9815831184387207,0.0
6095901,0,4975,89.82499694824219,-3.3882360458374023,4.383650779724121,156.796875,-0.17104199528694153,0.10506799817085266,1.720196008682251,43.0850715637207,56.274696350097656,34.68609619140625,122.11077117919922,-2.8914756774902344,0.0,0.8088194727897644,-0.5856050848960876,-0.053635310381650925,0.5687857866287231,0.8022117614746094,-0.18149180710315704,0.14930948615074158,0.11628714948892593,0.9819287061691284,0.0
6095911,0,4975,89.80899810791016,-3.929013967514038,5.469992160797119,156.796875,-0.1832589954137802,0.11728599667549133,1.737299919128418,43.528377532958984,56.297454833984375,34.27178955078125,122.52508544921875,-1.6111030578613281,0.0,0.7985992431640625,-0.5994501709938049,-0.05383078381419182,0.582816481590271,0.7925506830215454,-0.17941197752952576,0.15021225810050964,0.11190484464168549,0.9823001623153687,0.0
6095921,0,4975,89.81199645996094,-5.398207187652588,5.536991119384766,156.796875,-0.15882399678230286,0.175928995013237,1.7275259494781494,43.91555404663086,56.1653938293457,33.66484832763672,123.13201904296875,-2.3600921630859375,0.0,0.788231611251831,-0.6130524277687073,-0.05344903841614723,0.5967028141021729,0.7826576232910156,-0.1771811991930008,0.15045376121997833,0.10776668041944504,0.9827258586883545,0.0
6095931,0,4975,89.78800201416016,-3.574876070022583,1.8951150178909302,156.796875,-0.07330299913883209,0.16371099650859833,1.737299919128418,44.45594787597656,56.4406852722168,33.58642578125,123.21044921875,-0.30500030517578125,0.0,0.7775617837905884,-0.6265959739685059,-0.052671901881694794,0.6104658842086792,0.7723131775856018,-0.17568174004554749,0.15076078474521637,0.104449063539505,0.9830369353294373,0.0
6095941,0,4975,89.80799865722656,-0.7130609750747681,1.9668999910354614,156.5384521484375,-0.019547000527381897,0.15149399638175964,1.754404067993164,44.8052864074707,56.19682312011719,32.60633850097656,123.93242645263672,-2.88177490234375,-0.2584228515625,0.7665411233901978,-0.6401121616363525,-0.05167523771524429,0.6241535544395447,0.7615299820899963,-0.17465613782405853,0.1511518806219101,0.1016278862953186,0.9832724928855896,0.0
6095951,0,4975,89.822998046875,0.12442599982023239,3.3308091163635254,156.4906005859375,0.012217000126838684,0.18570199608802795,1.7666209936141968,45.01131820678711,55.56649398803711,31.339202880859375,125.1514663696289,-4.754138946533203,-0.04815673828125,0.7552210688591003,-0.6535419821739197,-0.05023130774497986,0.6377994418144226,0.7503748536109924,-0.17363713681697845,0.15117159485816956,0.09909697622060776,0.9835277199745178,0.0
6095961,0,4975,89.78500366210938,-0.5982049703598022,4.445864200592041,156.39967346191406,0.06597299873828888,0.23212799429893494,1.7788389921188354,45.48655700683594,55.66057586669922,30.974716186523438,125.42507934570312,-1.0901565551757812,-0.0909881591796875,0.7436037659645081,-0.6668872237205505,-0.048103101551532745,0.6514145731925964,0.7388074994087219,-0.17269329726696014,0.15070602297782898,0.09708037972450256,0.9838002920150757,0.0
6095971,0,4975,89.79100036621094,-2.268394947052002,4.4889349937438965,155.64833068847656,0.04398199915885925,0.21746699512004852,1.7910559177398682,45.88102722167969,55.532501220703125,29.7200927734375,125.92916107177734,-2.1763038635253906,-0.75146484375,0.7316569685935974,-0.6801015734672546,-0.046248625963926315,0.6648837327957153,0.7269576787948608,-0.17164646089076996,0.15035797655582428,0.09483642876148224,0.9840723872184753,0.0
6095981,0,4975,89.78900146484375,-2.794816017150879,3.8859429359436035,155.0740509033203,0.07330299913883209,0.17348499596118927,1.8008300065994263,46.25990676879883,55.3537712097168,28.579757690429688,126.49498748779297,-2.3657569885253906,-0.5752105712890625,0.7193841934204102,-0.6931828260421753,-0.044531334191560745,0.6781312227249146,0.7147535085678101,-0.171072855591774,0.15041384100914001,0.09286906570196152,0.9842514395713806,0.0
6095991,0,4974,89.7699966430664,0.9332000017166138,2.4071788787841797,154.4184112548828,0.14660699665546417,0.12950299680233002,1.8325949907302856,46.75387954711914,55.476417541503906,27.76422882080078,126.65497589111328,-0.8109703063964844,-0.6563262939453125,0.7066314220428467,-0.7062960863113403,-0.042625635862350464,0.6913034319877625,0.7019688487052917,-0.1712884157896042,0.15090236067771912,0.09157055616378784,0.9842982888221741,0.0
6096001,0,4974,89.75,1.9429709911346436,1.062412977218628,154.32269287109375,0.1417199969291687,0.07574699819087982,1.864359974861145,47.36475372314453,55.90042495727539,27.862075805664062,126.46072387695312,0.7275657653808594,-0.0965118408203125,0.6933877468109131,-0.7193892598152161,-0.04112750291824341,0.7043666839599609,0.6887302994728088,-0.1718098670244217,0.15192408859729767,0.09016204625368118,0.9842711091041565,0.0
6096011,0,4974,89.76399993896484,1.3495509624481201,1.0432699918746948,153.79627990722656,0.16126799583435059,0.11972899734973907,1.8887939453125,47.826534271240234,55.91526794433594,27.0379638671875,126.75896453857422,-1.3111991882324219,-0.526519775390625,0.6797401905059814,-0.7324053645133972,-0.03917593136429787,0.7174217700958252,0.6750407218933105,-0.1721237450838089,0.15250985324382782,0.08889379352331161,0.9842959046363831,0.0
6096021,0,4974,89.75800323486328,0.3397800028324127,0.11964099854230881,153.54742431640625,0.16371099650859833,0.10995499789714813,1.9034550189971924,48.29963302612305,55.95185852050781,26.508377075195312,127.03936767578125,-1.1621246337890625,-0.24951171875,0.6657344102859497,-0.7452570199966431,-0.03726649656891823,0.7302967309951782,0.660995602607727,-0.17248758673667908,0.15318073332309723,0.08761534839868546,0.9843063950538635,0.0
6096031,0,4974,89.74099731445312,0.08614099770784378,-0.6891319751739502,153.1693572998047,0.1417199969291687,0.03909499943256378,1.9352200031280518,48.86743927001953,56.23558044433594,26.182266235351562,126.98753356933594,0.0926513671875,-0.378387451171875,0.6512186527252197,-0.7580360770225525,-0.03598237410187721,0.742986261844635,0.646510660648346,-0.17319302260875702,0.154549703001976,0.08605212718248367,0.9842302799224854,0.0
6096041,0,4974,89.75,0.37806499004364014,-0.15792599320411682,152.86785888671875,0.1685979962348938,0.021990999579429626,1.9572110176086426,49.3262939453125,56.21706771850586,25.544662475585938,127.32354736328125,-1.3935050964355469,-0.30194091796875,0.6362826228141785,-0.7706796526908875,-0.03458932414650917,0.7555026412010193,0.6315693855285645,-0.17417332530021667,0.1560775488615036,0.08469114452600479,0.984107255935669,0.0
6096051,0,4974,89.74800109863281,1.220339059829712,-0.07656999677419662,152.31752014160156,0.1343899965286255,-0.07085999846458435,1.9767589569091797,49.76575469970703,56.14088821411133,24.611465454101562,127.70674133300781,-1.6484718322753906,-0.550689697265625,0.6209174990653992,-0.7831365466117859,-0.034026533365249634,0.7676833868026733,0.616295576095581,-0.17561985552310944,0.1585049033164978,0.08292383700609207,0.983869731426239,0.0
6096061,0,4974,89.71099853515625,0.6795610189437866,-0.8183450102806091,151.81980895996094,0.17104199528694153,0.0,2.032958984375,50.45442581176758,56.72409439086914,24.58148193359375,127.23892974853516,1.6756935119628906,-0.4983978271484375,0.6048865914344788,-0.7956389784812927,-0.03271079063415527,0.7800209522247314,0.6002784967422485,-0.17672933638095856,0.1602485179901123,0.08138609677553177,0.9837156534194946,0.0
6096071,0,4974,89.6969985961914,-0.11006899923086166,-1.1102689504623413,151.36517333984375,0.16371099650859833,-0.024434000253677368,2.0622799396514893,51.20376968383789,57.453697204589844,24.7789306640625,126.58678436279297,2.4048995971679688,-0.455230712890625,0.5883605480194092,-0.8079813122749329,-0.031576916575431824,0.7921587824821472,0.5837934613227844,-0.1779603809118271,0.16222324967384338,0.07969093322753906,0.9835307002067566,0.0
6096081,0,4974,89.7030029296875,-0.803987979888916,-1.1294119358062744,151.38909912109375,0.1270589977502823,-0.1270589977502823,2.0818281173706055,51.857627868652344,57.910343170166016,25.06756591796875,126.32151794433594,1.0382041931152344,0.02337646484375,0.5713915824890137,-0.8200793862342834,-0.031310953199863434,0.8038820028305054,0.566969633102417,-0.17977583408355713,0.16518300771713257,0.07755208760499954,0.983208954334259,0.0
6096091,0,4974,89.69499969482422,-1.698904037475586,-1.5457630157470703,150.71432495117188,0.15882399678230286,-0.08063399791717529,2.106261968612671,52.52774429321289,58.40109634399414,24.750457763671875,125.96469116210938,1.1934242248535156,-0.6747589111328125,0.5539865493774414,-0.8319668173789978,-0.03048277460038662,0.8154681921005249,0.5496461391448975,-0.18138647079467773,0.16766244173049927,0.07562793046236038,0.9829391241073608,0.0
6096101,0,4974,89.6760025024414,-2.1870388984680176,-1.718045949935913,150.64732360839844,0.17104199528694153,-0.053755998611450195,2.145358085632324,53.297279357910156,59.14153289794922,25.31787109375,125.32954406738281,2.4503021240234375,-0.0678253173828125,0.5360143184661865,-0.8436971306800842,-0.029371166601777077,0.8269426822662354,0.5317342281341553,-0.18282437324523926,0.16986624896526337,0.07370820641517639,0.9827065467834473,0.0
6096111,0,4974,89.66400146484375,-2.6416759490966797,-2.210968017578125,150.45111083984375,0.09040799736976624,-0.13194599747657776,2.167349100112915,54.107566833496094,59.97675704956055,25.880393981933594,124.57096099853516,2.8933029174804688,-0.1963043212890625,0.5175845623016357,-0.8551287651062012,-0.029325248673558235,0.8380007743835449,0.5135432481765747,-0.18446752429008484,0.17280344665050507,0.07090295851230621,0.9824008345603943,0.0
6096121,0,4974,89.69300079345703,-2.9527430534362793,-3.29252290725708,149.80982971191406,0.10262499749660492,-0.09040799736976624,2.191783905029297,54.64284896850586,60.05963134765625,25.062210083007812,124.7483901977539,-0.8745193481445312,-0.6415252685546875,0.4987123906612396,-0.8662841320037842,-0.028926659375429153,0.848858118057251,0.4948849678039551,-0.18582026660442352,0.17528869211673737,0.06811624020338058,0.9821576476097107,0.0
6096131,0,4974,89.65599822998047,-3.2159531116485596,-4.1204400062561035,149.80982971191406,0.06108599901199341,-0.08307699859142303,2.2528700828552246,55.42161178588867,60.783447265625,25.666397094726562,124.14341735839844,2.3522262573242188,-0.0007781982421875,0.47906720638275146,-0.8773042559623718,-0.028823930770158768,0.8596082925796509,0.47554436326026917,-0.18689963221549988,0.1776750683784485,0.06476018577814102,0.9819558262825012,0.0
6096141,0,4974,89.65599822998047,-3.5605199337005615,-3.967298984527588,149.24513244628906,0.03176400065422058,-0.06841599941253662,2.2870779037475586,56.148521423339844,61.35517883300781,25.546958923339844,123.69886016845703,1.5661964416503906,-0.5646820068359375,0.45887961983680725,-0.8880281448364258,-0.028886379674077034,0.8701037168502808,0.4557231664657593,-0.18771301209926605,0.17985880374908447,0.061003513634204865,0.9817988276481628,0.0
6096151,0,4974,89.66000366210938,-3.8428730964660645,-3.5461630821228027,149.28341674804688,0.017103999853134155,-0.03176400065422058,2.309070110321045,56.79548263549805,61.69659423828125,25.69158935546875,123.5917739868164,0.4272003173828125,0.03759765625,0.4382654130458832,-0.8983803987503052,-0.02889632247388363,0.8803081512451172,0.4355003535747528,-0.18814145028591156,0.18160712718963623,0.057018209248781204,0.981716513633728,0.0
6096161,0,4974,89.6510009765625,-4.244866847991943,-2.9814560413360596,149.2882080078125,-0.03420799970626831,0.012217000126838684,2.3286170959472656,57.465728759765625,62.092594146728516,25.873863220214844,123.41433715820312,0.6913681030273438,0.004852294921875,0.4172532856464386,-0.9083213210105896,-0.029171567410230637,0.89020836353302,0.4149691164493561,-0.18796248733997345,0.18283581733703613,0.052459169179201126,0.9817426204681396,0.0
6096171,0,4974,89.65299987792969,-4.082155227661133,-2.416749954223633,149.21641540527344,0.007329999934881926,-0.019547000527381897,2.360382080078125,58.07398986816406,62.31400680541992,25.759765625,123.45673370361328,-0.18554306030273438,-0.0717926025390625,0.395714670419693,-0.9179085493087769,-0.029200779274106026,0.8996928334236145,0.3938499689102173,-0.18824215233325958,0.18428999185562134,0.048218417912721634,0.9816881418228149,0.0
6096181,0,4974,89.61900329589844,-4.106082916259766,-1.6366900205612183,149.1159210205078,0.007329999934881926,0.06841599941253662,2.3921470642089844,58.898582458496094,63.10699462890625,26.351165771484375,122.7648696899414,2.6613845825195312,-0.1005706787109375,0.37368711829185486,-0.9271043539047241,-0.02888481505215168,0.9089604616165161,0.3722224533557892,-0.1877269595861435,0.18479424715042114,0.04389595612883568,0.981796145439148,0.0
6096191,0,4973,89.61399841308594,-4.153940200805664,-2.230109930038452,149.3456268310547,-0.11239899694919586,0.048868998885154724,2.4336860179901123,59.70673370361328,63.840633392333984,27.164466857910156,122.18086242675781,2.3369522094726562,0.2295989990234375,0.35105225443840027,-0.9358819723129272,-0.029767770320177078,0.9178198575973511,0.35022324323654175,-0.18695034086704254,0.18538901209831238,0.03830784559249878,0.9819179177284241,0.0
6096201,0,4973,89.6259994506836,-3.627519130706787,-2.4263219833374023,149.25949096679688,-0.058642998337745667,0.14416399598121643,2.455677032470703,60.369163513183594,64.17292785644531,27.16260528564453,122.09699249267578,0.30145263671875,-0.085845947265625,0.3280314803123474,-0.9441947937011719,-0.02984066866338253,0.926389753818512,0.32770800590515137,-0.18549828231334686,0.18492572009563446,0.03320513665676117,0.9821910858154297,0.0
6096211,0,4973,89.6050033569336,-3.2207388877868652,-1.6319050788879395,149.46047973632812,-0.0048859999515116215,0.10751199722290039,2.4654510021209717,61.14546203613281,64.80087280273438,27.803863525390625,121.65635681152344,1.7711982727050781,0.2008819580078125,0.30470943450927734,-0.9519860744476318,-0.029556062072515488,0.934363842010498,0.3047987222671509,-0.1845589131116867,0.18470634520053864,0.02862067148089409,0.9823766350746155,0.0
6096221,0,4973,89.61399841308594,-2.7517449855804443,-0.6604189872741699,150.0539093017578,-0.07330299913883209,0.07085999846458435,2.480112075805664,61.80035400390625,65.09361267089844,28.371681213378906,121.68148803710938,0.07305908203125,0.59368896484375,0.2810513973236084,-0.9592212438583374,-0.030056335031986237,0.9417458176612854,0.28168871998786926,-0.18375582993030548,0.1847292184829712,0.023339344188570976,0.9825119376182556,0.0
6096231,0,4973,89.58999633789062,-1.8855440616607666,-0.3445659875869751,150.6186065673828,-0.058642998337745667,0.0879639983177185,2.5045459270477295,62.59231948852539,65.7507553100586,29.37195587158203,121.2459487915039,1.8562507629394531,0.5654449462890625,0.25699079036712646,-0.9659351706504822,-0.03038955107331276,0.9486466646194458,0.2581433355808258,-0.18284286558628082,0.18445941805839539,0.018159914761781693,0.9826719760894775,0.0
6096241,0,4973,89.5780029296875,-1.751546025276184,-0.5216349959373474,150.8770294189453,-0.053755998611450195,0.10018099844455719,2.5314249992370605,63.42259979248047,66.50267028808594,30.19731903076172,120.67938232421875,2.2776336669921875,0.259124755859375,0.23251239955425262,-0.9721090197563171,-0.030668672174215317,0.9550406336784363,0.23416626453399658,-0.18183384835720062,0.18394409120082855,0.012988721020519733,0.9828505516052246,0.0
6096251,0,4973,89.58899688720703,-1.2107679843902588,-2.172682046890259,151.28860473632812,-0.02932099997997284,0.18570199608802795,2.536310911178589,64.11325073242188,66.86915588378906,30.66070556640625,120.62739562988281,0.32065582275390625,0.411895751953125,0.20786412060260773,-0.9776799082756042,-0.030547035858035088,0.9609894156455994,0.20994137227535248,-0.18006661534309387,0.18246079981327057,0.008073925971984863,0.9831796288490295,0.0
6096261,0,4973,89.55999755859375,-2.9431710243225098,-1.2155530452728271,150.97274780273438,-0.08552099764347076,0.1148419976234436,2.5680761337280273,64.97718048095703,67.6938705444336,31.031410217285156,119.94173431396484,2.575469970703125,-0.3153533935546875,0.18274925649166107,-0.9826648831367493,-0.031160451471805573,0.9662529230117798,0.18536873161792755,-0.17886792123317719,0.18154360353946686,0.002579015912488103,0.9833791255950928,0.0
6096271,0,4973,89.55500030517578,-2.1918249130249023,0.24885299801826477,149.58969116210938,-0.08307699859142303,0.10018099844455719,2.5900678634643555,65.82205963134766,68.44923400878906,30.320953369140625,119.27042388916016,2.212371826171875,-1.383453369140625,0.15729376673698425,-0.9870387315750122,-0.03180575370788574,0.9708922505378723,0.16045071184635162,-0.17783093452453613,0.18062950670719147,-0.002908350434154272,0.9835464954376221,0.0
6096281,0,4973,89.56999969482422,1.698904037475586,0.8901299834251404,129.18849182128906,-0.1954759955406189,0.22724099457263947,2.5998411178588867,66.4956283569336,68.71891784667969,11.409942626953125,117.8034896850586,-0.1654815673828125,-20.402877807617188,0.1316797435283661,-0.9907284379005432,-0.03340592980384827,0.9751238822937012,0.13551990687847137,-0.17540743947029114,0.17830853164196014,-0.0094774030148983,0.9839285612106323,0.0
6096291,0,4973,89.52200317382812,-3.7806589603424072,0.4259220063686371,138.08021545410156,0.10751199722290039,0.18814599514007568,2.619389057159424,67.48726654052734,69.6458969116211,20.648895263671875,117.42047119140625,4.040245056152344,8.866775512695312,0.10577051341533661,-0.9938712120056152,-0.03210899233818054,0.9786485433578491,0.10976444184780121,-0.17377811670303345,0.17623771727085114,-0.013042912818491459,0.9842608571052551,0.0
6096301,0,4973,89.57499694824219,-1.316051959991455,-0.6747750043869019,133.72528076171875,-0.06352899968624115,0.15882399678230286,2.636492967605591,68.0079116821289,69.37931823730469,16.026824951171875,117.7037582397461,-2.351318359375,-4.344085693359375,0.0796080231666565,-0.9962927103042603,-0.03258528932929039,0.9814627766609192,0.08405603468418121,-0.1722366362810135,0.17433729767799377,-0.01826992817223072,0.9845161437988281,0.0
6096311,0,4973,89.48100280761719,-2.0482559204101562,-1.9286149740219116,127.1641616821289,-0.04398199915885925,0.1221729964017868,2.6535980701446533,69.20569610595703,70.8853988647461,11.674758911132812,115.49742889404297,6.690254211425781,-6.566429138183594,0.05320866033434868,-0.9980394840240479,-0.032932013273239136,0.9835435152053833,0.05808068439364433,-0.17108145356178284,0.17265895009040833,-0.023287154734134674,0.9847059845924377,0.0
6096321,0,4973,89.4739990234375,1.4931210279464722,0.2967100143432617,122.66087341308594,-0.04153800010681152,0.09285099804401398,2.690248966217041,70.38066101074219,72.24723815917969,9.094451904296875,113.57192993164062,6.189476013183594,-4.511314392089844,0.02639678306877613,-0.9990960955619812,-0.033297065645456314,0.9848953485488892,0.031694445759058,-0.1702251136302948,0.17112676799297333,-0.028300834819674492,0.9848421216011047,0.0
6096331,0,4972,89.43900299072266,2.991028070449829,3.134597063064575,115.1378402709961,-0.03176400065422058,0.08063399791717529,2.7220139503479004,71.74742126464844,74.06015014648438,4.33349609375,110.81353759765625,8.560165405273438,-7.528541564941406,-0.000755124376155436,-0.9994346499443054,-0.03358927369117737,0.9855176210403442,0.004951746668666601,-0.16950072348117828,0.1695714145898819,-0.03323092311620712,0.9849571585655212,0.0
6096341,0,4973,89.41100311279297,1.7419739961624146,2.364108085632324,110.8594741821289,0.0048859999515116215,0.13683299720287323,2.719571113586426,73.24207305908203,76.11974334716797,2.945953369140625,107.91876983642578,10.022872924804688,-4.287559509277344,-0.02786300703883171,-0.9990480542182922,-0.03354306519031525,0.9855063557624817,-0.021837377920746803,-0.1682272106409073,0.16733475029468536,-0.03774433210492134,0.9851770401000977,0.0
6096351,0,4972,89.3219985961914,0.7417749762535095,0.8087739944458008,106.3801040649414,-0.024434000253677368,0.046424999833106995,2.739119052886963,75.323974609375,79.6812744140625,3.3139114379882812,103.07166290283203,17.557861328125,-4.484619140625,-0.055175621062517166,-0.9979040622711182,-0.03378728777170181,0.9846054315567017,-0.04875737428665161,-0.16785350441932678,0.16585449874401093,-0.04252868518233299,0.985232412815094,0.0
6096361,0,4973,89.28800201416016,1.1485539674758911,-1.4500499963760376,101.84809875488281,0.07085999846458435,-0.012217000126838684,2.7708840370178223,77.5423583984375,83.51622772216797,3.9778060913085938,97.87583923339844,18.898696899414062,-4.5374755859375,-0.08278321474790573,-0.9960185289382935,-0.03305124491453171,0.9828435182571411,-0.07611353695392609,-0.16800393164157867,0.16481956839561462,-0.046392232179641724,0.9852316975593567,0.0
6096371,0,4972,89.26899719238281,1.038485050201416,-1.7898309230804443,97.71330261230469,0.10751199722290039,0.026877999305725098,2.785543918609619,79.77467346191406,87.29243469238281,4.925384521484375,92.79296875,18.573699951171875,-4.140342712402344,-0.11046092957258224,-0.9933648109436035,-0.03198453038930893,0.9803746342658997,-0.10361653566360474,-0.1677173376083374,0.16329056024551392,-0.0498831644654274,0.98531574010849,0.0
6096381,0,4972,89.24199676513672,3.125025987625122,-1.182054042816162,93.67900085449219,0.046424999833106995,-0.02932099997997284,2.8050918579101562,82.08055114746094,91.17376708984375,6.088630676269531,87.59532165527344,19.049118041992188,-4.0393524169921875,-0.13826528191566467,-0.9898945093154907,-0.03146238252520561,0.9770228862762451,-0.13112734258174896,-0.16802304983139038,0.1621996909379959,-0.05397135764360428,0.985280454158783,0.0
6096391,0,4972,89.21800231933594,3.416949987411499,-0.765703022480011,90.25247955322266,0.024434000253677368,-0.048868998885154724,2.8368570804595947,84.43254852294922,95.08609771728516,7.838775634765625,82.41789245605469,19.145347595214844,-3.4314727783203125,-0.16628041863441467,-0.9855864644050598,-0.03111923672258854,0.9728186726570129,-0.15880519151687622,-0.16853658854961395,0.16116565465927124,-0.05829785391688347,0.9852036237716675,0.0
6096401,0,4972,89.2249984741211,1.698904037475586,-0.8135589957237244,84.46663665771484,0.0024429999757558107,-0.1417199969291687,2.8612918853759766,86.59037017822266,98.39166259765625,6.609764099121094,77.86395263671875,16.04235076904297,-5.790031433105469,-0.19443026185035706,-0.9804314970970154,-0.0308101586997509,0.967629075050354,-0.1865500807762146,-0.16997915506362915,0.16090545058250427,-0.06286205351352692,0.984965443611145,0.0
6096411,0,4973,89.17900085449219,0.1627109944820404,-0.41635099053382874,82.23174285888672,-0.021990999579429626,-0.03665100038051605,2.890613079071045,88.96820068359375,102.18521118164062,9.301422119140625,72.93305206298828,18.528900146484375,-2.241973876953125,-0.22267428040504456,-0.9744017124176025,-0.030917158350348473,0.9617637395858765,-0.21437831223011017,-0.1704476773738861,0.15945668518543243,-0.06768947839736938,0.9848811030387878,0.0
6096421,0,4973,89.13400268554688,-0.5120639801025391,-0.17228299379348755,80.51847839355469,-0.10506799817085266,-0.10995499789714813,2.9028310775756836,91.54660034179688,106.4403076171875,13.035118103027344,67.4854507446289,20.689414978027344,-1.7159957885742188,-0.2508733570575714,-0.9675017595291138,-0.031643446534872055,0.9549438953399658,-0.2419981062412262,-0.17181117832660675,0.15857011079788208,-0.07332073897123337,0.9846210479736328,0.0
6096431,0,4972,89.11299896240234,-0.8135589957237244,-0.3876369893550873,79.18328857421875,0.021990999579429626,-0.09529399871826172,2.915048122406006,94.13121032714844,110.63504791259766,16.994155883789062,62.19076156616211,20.203781127929688,-1.3372802734375,-0.27897384762763977,-0.9597926735877991,-0.031143415719270706,0.9473137259483337,-0.26974228024482727,-0.1727302521467209,0.15738467872142792,-0.077689990401268,0.9844762086868286,0.0
6096441,0,4972,89.08200073242188,-0.7848449945449829,0.004784999880939722,78.06822967529297,0.046424999833106995,0.017103999853134155,2.929708957672119,96.7974624633789,114.97502136230469,21.292236328125,56.7773551940918,20.72887420654297,-1.1166915893554688,-0.30694225430488586,-0.9512315988540649,-0.030712252482771873,0.9390283823013306,-0.2974352240562439,-0.17250512540340424,0.15495754778385162,-0.08178897202014923,0.9845291972160339,0.0
6096451,0,4972,89.04900360107422,-1.8281159400939941,-0.765703022480011,77.03931427001953,-0.012217000126838684,-0.15149399638175964,2.94925594329834,99.55596160888672,119.48805236816406,25.836509704589844,51.204063415527344,21.375450134277344,-1.0302810668945312,-0.3348834216594696,-0.9417712688446045,-0.030302047729492188,0.9295819401741028,-0.3249499797821045,-0.17402541637420654,0.15404559671878815,-0.08644665032625198,0.9842743277549744,0.0
6096461,0,4972,89.02200317382812,-2.7278170585632324,0.23928199708461761,76.15396881103516,0.06597299873828888,0.017103999853134155,2.9761340618133545,102.35543060302734,124.03479766845703,30.49866485595703,45.65637969970703,21.31720733642578,-0.8866043090820312,-0.36273303627967834,-0.9314186573028564,-0.029702136293053627,0.9195243716239929,-0.3525618314743042,-0.17370931804180145,0.15132437646389008,-0.09032214432954788,0.9843484163284302,0.0
6096471,0,4972,88.99099731445312,-2.9718849658966064,1.4261219501495361,75.78069305419922,-0.0879639983177185,-0.10751199722290039,2.993238925933838,105.22367858886719,128.68988037109375,35.713417053222656,40.06773376464844,21.623886108398438,-0.37435150146484375,-0.39045652747154236,-0.9201292395591736,-0.030068039894104004,0.9083721041679382,-0.37974655628204346,-0.1750784069299698,0.1496766358613968,-0.09567367285490036,0.9840947389602661,0.0
6096481,0,4972,88.93299865722656,-3.0963120460510254,1.3399800062179565,75.57012176513672,0.04153800010681152,0.0048859999515116215,3.007899045944214,108.36311340332031,133.9972381591797,41.846405029296875,33.723976135253906,24.607147216796875,-0.211029052734375,-0.41793015599250793,-0.907993733882904,-0.02966255508363247,0.8965449333190918,-0.4069460928440094,-0.17493389546871185,0.14676792919635773,-0.09970416128635406,0.984132707118988,0.0
6096491,0,4972,88.93599700927734,-3.6179471015930176,1.0193419456481934,75.01020050048828,-0.10506799817085266,0.03420799970626831,3.0152299404144287,111.29280853271484,138.6621551513672,46.75684356689453,28.254045486450195,21.108787536621094,-0.5601806640625,-0.44508278369903564,-0.8949615955352783,-0.030709993094205856,0.8839291334152222,-0.4335869550704956,-0.17513255774974823,0.14342156052589417,-0.10509415715932846,0.9840652346611023,0.0
6096501,0,4972,88.9010009765625,-3.4839489459991455,0.9236289858818054,75.02934265136719,-0.014659999869763851,0.03176400065422058,3.0250039100646973,114.31328582763672,143.4936065673828,52.352474212646484,22.676843643188477,21.6923828125,0.01845550537109375,-0.47191768884658813,-0.8810985684394836,-0.03093656152486801,0.8704649806022644,-0.4600789248943329,-0.17497961223125458,0.13994112610816956,-0.10950537770986557,0.9840853214263916,0.0
6096511,0,4972,88.88200378417969,-3.321237087249756,-0.21056799590587616,74.39763641357422,0.06841599941253662,0.014659999869763851,3.0592119693756104,117.29682159423828,148.1522216796875,57.054386138916016,17.34402084350586,20.555068969726562,-0.631683349609375,-0.49862343072891235,-0.8662858009338379,-0.03035881370306015,0.8560078740119934,-0.48658955097198486,-0.1745879054069519,0.13647083938121796,-0.1130412146449089,0.9841728806495667,0.0
6096521,0,4972,88.85800170898438,-2.220539093017578,-0.3206380009651184,74.43592834472656,0.017103999853134155,-0.024434000253677368,3.066541910171509,120.28278350830078,152.73912048339844,62.22339630126953,12.212482452392578,19.96489715576172,0.0375213623046875,-0.5249379277229309,-0.850609302520752,-0.03003402054309845,0.8406427502632141,-0.5126168131828308,-0.1747668981552124,0.1332624852657318,-0.116989865899086,0.9841510653495789,0.0
6096531,0,4972,88.83399963378906,-1.6749749183654785,-0.9236289858818054,74.057861328125,0.007329999934881926,0.06108599901199341,3.120297908782959,123.2704086303711,157.2587890625,66.85608673095703,7.202228546142578,19.37372589111328,-0.378021240234375,-0.5511823296546936,-0.833835244178772,-0.03024633415043354,0.8243476748466492,-0.5385895371437073,-0.17427532374858856,0.1290266215801239,-0.12099117785692215,0.9842317700386047,0.0
6096541,0,4972,88.83699798583984,-2.651247024536133,-1.9429709911346436,73.5697250366211,0.13683299720287323,0.03176400065422058,3.1325159072875977,126.0523681640625,161.15318298339844,70.52798461914062,3.042339324951172,16.035255432128906,-0.48859405517578125,-0.5770003199577332,-0.8162190914154053,-0.02924014814198017,0.8071271181106567,-0.564364492893219,-0.17331534624099731,0.12496127188205719,-0.12360373139381409,0.9844316244125366,0.0
6096551,0,4972,88.81199645996094,-1.8568300008773804,-2.1056830883026123,73.52186584472656,0.053755998611450195,0.03665100038051605,3.122741937637329,128.85252380371094,165.02828979492188,74.53532409667969,-1.0133953094482422,15.756889343261719,-0.0484619140625,-0.6021747589111328,-0.797837495803833,-0.028964346274733543,0.7891765236854553,-0.5893661379814148,-0.17276474833488464,0.12076766043901443,-0.12689276039600372,0.9845365881919861,0.0
6096561,0,4972,88.78500366210938,-1.9046859741210938,-2.90488600730896,73.55536651611328,-0.017103999853134155,0.046424999833106995,3.1545069217681885,131.68458557128906,168.9246368408203,78.59432983398438,-5.038999557495117,15.66326904296875,0.03343963623046875,-0.6270076036453247,-0.7784597277641296,-0.029324844479560852,0.7702783346176147,-0.6139180064201355,-0.17255590856075287,0.11632484197616577,-0.1307823807001114,0.9845625758171082,0.0
6096571,0,4972,88.80599975585938,-0.39242199063301086,-3.9625139236450195,73.22994232177734,0.00977300014346838,-0.046424999833106995,3.1667239665985107,134.17926025390625,171.8543701171875,81.03392028808594,-7.803581237792969,10.656539916992188,-0.32538604736328125,-0.6513372659683228,-0.758236825466156,-0.028891747817397118,0.75037682056427,-0.6379976868629456,-0.1728961318731308,0.1126634031534195,-0.1342936009168625,0.9845156669616699,0.0
6096581,0,4972,88.77300262451172,0.8709869980812073,-2.9240288734436035,73.42615509033203,-0.03420799970626831,-0.024434000253677368,3.181385040283203,136.76589965820312,174.97576904296875,84.16935729980469,-10.743438720703125,11.488037109375,0.1958160400390625,-0.6751163601875305,-0.7371426820755005,-0.02892271615564823,0.7296655774116516,-0.6614672541618347,-0.17334569990634918,0.10864914953708649,-0.13813263177871704,0.9844356775283813,0.0
6096591,0,4972,88.76899719238281,1.071984052658081,-3.0867409706115723,73.59843444824219,-0.03420799970626831,0.014659999869763851,3.205820083618164,139.21763610839844,177.68377685546875,86.71470642089844,-13.116477966308594,9.277252197265625,0.172515869140625,-0.698376476764679,-0.715133011341095,-0.02920760214328766,0.7081193327903748,-0.6844406723976135,-0.17351499199867249,0.10409548878669739,-0.1418614685535431,0.9843974113464355,0.0
6096601,0,4972,88.73200225830078,0.43070799112319946,-1.296908974647522,73.3304443359375,-0.14660699665546417,0.03420799970626831,3.1960458755493164,141.79307556152344,180.6753387451172,89.18281555175781,-15.852046966552734,10.560272216796875,-0.26778411865234375,-0.720845639705658,-0.6924265027046204,-0.03041662834584713,0.6859546303749084,-0.7064501047134399,-0.17433863878250122,0.09922890365123749,-0.14653587341308594,0.984215259552002,0.0
6096611,0,4972,88.69999694824219,0.15313999354839325,-0.46899300813674927,73.23472595214844,-0.10506799817085266,0.17837199568748474,3.203376054763794,144.44737243652344,183.8221893310547,91.97669982910156,-18.741853713989258,11.209442138671875,-0.096038818359375,-0.7425819039344788,-0.6689711213111877,-0.032370224595069885,0.6632949113845825,-0.7278652787208557,-0.1739291399717331,0.09279244393110275,-0.15062782168388367,0.9842254519462585,0.0
6096621,0,4972,88.6760025024414,-0.46899300813674927,-0.7369890213012695,73.20122528076172,-0.046424999833106995,-0.007329999934881926,3.242471933364868,147.1147918701172,186.94747924804688,94.76504516601562,-21.563783645629883,10.963470458984375,-0.03362274169921875,-0.763867199420929,-0.6445505023002625,-0.03255172073841095,0.6393438577651978,-0.748891294002533,-0.17435796558856964,0.08800484985113144,-0.1539982557296753,0.9841435551643372,0.0
6096631,0,4972,88.66799926757812,0.693917989730835,-0.6556329727172852,72.98587036132812,0.0,0.026877999305725098,3.2180368900299072,149.6718292236328,189.721435546875,96.9005126953125,-23.914377212524414,9.078369140625,-0.21539306640625,-0.784187912940979,-0.6196601390838623,-0.03269036114215851,0.6149704456329346,-0.7690619230270386,-0.17422544956207275,0.08281968533992767,-0.15672928094863892,0.984162449836731,0.0
6096641,0,4972,88.64800262451172,0.5742769837379456,-0.6652039885520935,72.60301971435547,0.06597299873828888,-0.058642998337745667,3.2326979637145996,152.21524047851562,192.40585327148438,98.7391128540039,-26.135631561279297,8.527175903320312,-0.38311767578125,-0.8038130402565002,-0.594032347202301,-0.03175375238060951,0.5896947979927063,-0.7886375188827515,-0.1740986704826355,0.07837806642055511,-0.15866798162460327,0.984215497970581,0.0
6096651,0,4972,88.60600280761719,0.48335000872612,0.4402790069580078,71.96174621582031,-0.046424999833106995,-0.00977300014346838,3.210706949234009,154.91348266601562,195.45077514648438,100.77590942382812,-28.813371658325195,10.227828979492188,-0.6417388916015625,-0.8224589824676514,-0.567929208278656,-0.03187241032719612,0.5640658736228943,-0.8070681095123291,-0.17455708980560303,0.07341287285089493,-0.16154435276985168,0.9841304421424866,0.0
6096661,0,4972,88.55999755859375,-0.43070799112319946,0.3684940040111542,70.87540435791016,-0.021990999579429626,-0.06597299873828888,3.2302539348602295,157.7888946533203,198.90823364257812,102.9021224975586,-32.025390625,12.177261352539062,-1.0871353149414062,-0.8403816223144531,-0.5410847067832947,-0.03137321025133133,0.5375986695289612,-0.8248132467269897,-0.17512927949428558,0.06888273358345032,-0.16404181718826294,0.9840447902679443,0.0
6096671,0,4972,88.53099822998047,-2.354537010192871,-0.7944170236587524,67.865234375,-0.08552099764347076,-0.00977300014346838,3.1887149810791016,160.70193481445312,202.39480590820312,103.2587661743164,-35.38983917236328,12.216384887695312,-3.0114974975585938,-0.857197105884552,-0.5140121579170227,-0.031667958945035934,0.5110220909118652,-0.8413727283477783,-0.1759200543165207,0.06378048658370972,-0.16698138415813446,0.9838942885398865,0.0
6096681,0,4972,88.51799774169922,-1.5457630157470703,-0.9810569882392883,66.08497619628906,-0.14416399598121643,0.014659999869763851,3.203376054763794,163.5275421142578,205.55783081054688,104.33244323730469,-38.24528503417969,10.590255737304688,-1.7839508056640625,-0.8732048869132996,-0.4862705171108246,-0.03244157135486603,0.4838503897190094,-0.8570444583892822,-0.1770961582660675,0.05831276252865791,-0.17033828794956207,0.9836580753326416,0.0
6096691,0,4972,88.49199676513672,-0.062212999910116196,-0.9140580296516418,64.24250030517578,-0.0024429999757558107,-0.0024429999757558107,3.203376054763794,166.3687744140625,208.68862915039062,105.29507446289062,-41.050315856933594,10.376754760742188,-1.8446578979492188,-0.8883228898048401,-0.4580761194229126,-0.032356519252061844,0.4561568796634674,-0.8720882534980774,-0.17715109884738922,0.05293093994259834,-0.17212720215320587,0.9836509823799133,0.0
6096701,0,4972,88.45899963378906,0.26799601316452026,0.46899300813674927,62.21338653564453,-0.0024429999757558107,0.03909499943256378,3.181385040283203,169.27777099609375,211.9263916015625,106.20947265625,-43.993595123291016,10.860610961914062,-2.0313720703125,-0.9024229049682617,-0.42961105704307556,-0.0326416939496994,0.4282644987106323,-0.8861449956893921,-0.1770196408033371,0.04712430387735367,-0.17372603714466095,0.9836652278900146,0.0
6096711,0,4972,88.4209976196289,-0.9762709736824036,1.263409972190857,60.42355728149414,-0.021990999579429626,0.051311999559402466,3.1764979362487793,172.28854370117188,215.3588104248047,107.58209991455078,-47.15635681152344,11.7828369140625,-1.7923202514648438,-0.9155872464179993,-0.40075060725212097,-0.033123139292001724,0.400005578994751,-0.8992544412612915,-0.1770210564136505,0.0411551371216774,-0.1753278374671936,0.9836488962173462,0.0
6096721,0,4972,88.37300109863281,-2.0195419788360596,1.5936189889907837,58.22694396972656,0.04398199915885925,-0.00977300014346838,3.1716110706329346,175.47178649902344,219.17428588867188,109.05093383789062,-50.8213005065918,13.618637084960938,-2.1987991333007812,-0.9278314113616943,-0.3715536594390869,-0.032786354422569275,0.3712795078754425,-0.9115573167800903,-0.1766757220029831,0.03575783595442772,-0.17609834671020508,0.9837222695350647,0.0
6096731,0,4972,88.34600067138672,-1.9956140518188477,2.402393102645874,55.52783966064453,-0.08063399791717529,0.06352899968624115,3.1300721168518066,178.657470703125,222.90870666503906,109.9322280883789,-54.401084899902344,13.142791748046875,-2.701793670654297,-0.9389772415161133,-0.342332661151886,-0.03358994796872139,0.3426944613456726,-0.9225832223892212,-0.1772012710571289,0.029672224074602127,-0.17789922654628754,0.9836006164550781,0.0
6096741,0,4972,88.31999969482422,-0.7369890213012695,2.756531000137329,53.89593505859375,0.06352899968624115,0.012217000126838684,3.139846086502075,181.83702087402344,226.5355682373047,111.65110778808594,-57.753173828125,12.564254760742188,-1.6352081298828125,-0.9492522478103638,-0.31273242831230164,-0.033419568091630936,0.31359267234802246,-0.9329941272735596,-0.17658215761184692,0.024042662233114243,-0.1781013309955597,0.9837177395820618,0.0
6096751,0,4973,88.2750015258789,-0.5024920105934143,2.2731809616088867,50.98147964477539,-0.053755998611450195,0.019547000527381897,3.1374030113220215,185.15518188476562,230.45315551757812,112.53475952148438,-61.549713134765625,13.923904418945312,-2.916454315185547,-0.9585837125778198,-0.2828085720539093,-0.03368821740150452,0.28421786427497864,-0.9422728419303894,-0.177035853266716,0.018323713913559914,-0.1792786568403244,0.9836270213127136,0.0
6096761,0,4972,88.24700164794922,-0.41635099053382874,1.4500499963760376,47.732025146484375,-0.026877999305725098,0.10995499789714813,3.122741937637329,188.47422790527344,234.27694702148438,112.97599792480469,-65.24000549316406,13.413925170898438,-3.253021240234375,-0.9669048190116882,-0.2527580261230469,-0.03474075347185135,0.2548653483390808,-0.9506389498710632,-0.1769995242357254,0.011712079867720604,-0.179996058344841,0.9835969805717468,0.0
6096771,0,4973,88.197998046875,-0.9332000017166138,0.894914984703064,43.05166244506836,0.10018099844455719,0.14660699665546417,3.1374030113220215,191.95376586914062,238.43215942382812,112.51161193847656,-69.45421600341797,15.039413452148438,-4.684329986572266,-0.9743036031723022,-0.22236444056034088,-0.03584759309887886,0.2251860499382019,-0.9583434462547302,-0.1756945550441742,0.004713854752480984,-0.17925237119197845,0.983791172504425,0.0
6096781,0,4973,88.16000366210938,0.4594210088253021,-0.01435600034892559,38.89772415161133,0.18081599473953247,-0.04398199915885925,3.14717698097229,195.5006866455078,242.65182495117188,112.62077331542969,-73.71795654296875,15.382965087890625,-4.159671783447266,-0.980832576751709,-0.19168564677238464,-0.03496495261788368,0.19484806060791016,-0.9652672410011292,-0.1740485280752182,-0.00038798031164333224,-0.17752546072006226,0.9841154217720032,0.0
6096791,0,4972,88.13300323486328,1.6606180667877197,-0.5982049703598022,34.80599594116211,0.048868998885154724,-0.10995499789714813,3.1300721168518066,199.0263671875,246.702880859375,112.57112884521484,-77.76012420654297,14.539459228515625,-4.096820831298828,-0.9863876104354858,-0.16093789041042328,-0.03371890261769295,0.16436287760734558,-0.9709726572036743,-0.17377127707004547,-0.004773817956447601,-0.17694813013076782,0.9842078685760498,0.13685563206672668
6096801,0,4972,88.08999633789062,1.8376870155334473,-2.1918249130249023,27.86202621459961,0.03176400065422058,0.02932099997997284,3.127629041671753,202.65321350097656,250.9156951904297,110.09126281738281,-82.22074127197266,15.3460693359375,-6.948978424072266,-0.9909274578094482,-0.13005034625530243,-0.033884428441524506,0.13398058712482452,-0.975692629814148,-0.17341433465480804,-0.01050826907157898,-0.17638103663921356,0.984265148639679,0.33221274614334106
6096811,0,4972,88.06900024414062,0.5790629982948303,-2.388036012649536,24.966711044311523,0.07330299913883209,-0.024434000253677368,3.1545069217681885,206.2067413330078,254.7952880859375,110.95801544189453,-85.98774719238281,13.812713623046875,-2.903810501098633,-0.9945449233055115,-0.09878239035606384,-0.03347998484969139,0.10310815274715424,-0.979559063911438,-0.17272017896175385,-0.01573398895561695,-0.17523019015789032,0.9844009876251221,0.5121176838874817
6096821,0,4972,88.01599884033203,-0.6460620164871216,-2.6799609661102295,22.90888214111328,-0.0024429999757558107,-0.014659999869763851,3.1593940258026123,209.93426513671875,259.0450134277344,113.06590270996094,-90.15451049804688,15.6094970703125,-2.0613861083984375,-0.9971746802330017,-0.06734177470207214,-0.033258285373449326,0.07210025191307068,-0.9823232889175415,-0.1727481335401535,-0.021037306636571884,-0.1746581494808197,0.9844036102294922,0.7091864943504333
6096831,0,4972,87.97200012207031,-1.5170490741729736,-2.2636098861694336,20.793628692626953,0.06841599941253662,-0.04398199915885925,3.1716110706329346,213.7573699951172,263.4575500488281,115.30286407470703,-94.50664520263672,16.314117431640625,-2.1177635192871094,-0.9988251328468323,-0.03573502227663994,-0.03270665928721428,0.040847908705472946,-0.9842338562011719,-0.17208892107009888,-0.026041489094495773,-0.1732228845357895,0.9845375418663025,0.9138051271438599
6096841,0,4973,87.93599700927734,-1.5026919841766357,-2.0673980712890625,19.17608070373535,0.0024429999757558107,0.021990999579429626,3.169167995452881,217.60919189453125,267.8509521484375,117.9469223022461,-98.76885986328125,16.107650756835938,-1.620138168334961,-0.9994511604309082,-0.004094845615327358,-0.032848939299583435,0.009690270759165287,-0.985041081905365,-0.17204561829566956,-0.03165314719080925,-0.17226964235305786,0.9845404028892517,1.0
6096851,0,4973,87.8949966430664,-1.3112659454345703,-2.268394947052002,17.491533279418945,-0.07330299913883209,-0.046424999833106995,3.1789419651031494,221.525634765625,272.3257751464844,120.5998764038086,-103.10627746582031,16.380966186523438,-1.6865291595458984,-0.9990943074226379,0.02767197974026203,-0.032299865037202835,-0.02168937958776951,-0.9847268462181091,-0.17274874448776245,-0.0365869402885437,-0.17189185321331024,0.9844354391098022,1.0
6096861,0,4973,87.85199737548828,-1.0241279602050781,-1.3112659454345703,15.610774040222168,-0.007329999934881926,0.03665100038051605,3.1887149810791016,225.51791381835938,276.909912109375,123.17715454101562,-107.5640640258789,16.792572021484375,-1.8828248977661133,-0.9976962208747864,0.05948702245950699,-0.0325867123901844,-0.052997834980487823,-0.9835270047187805,-0.17281608283519745,-0.04233032837510109,-0.17069105803966522,0.9844141602516174,1.0
6096871,0,4973,87.8219985961914,-0.9523429870605469,-1.6797609329223633,12.849456787109375,-0.026877999305725098,0.09773799777030945,3.181385040283203,229.48193359375,281.3211975097656,124.68594360351562,-111.83309936523438,15.805206298828125,-2.7636337280273438,-0.9952716827392578,0.09117459505796432,-0.03346523270010948,-0.08407401293516159,-0.9813044667243958,-0.17312629520893097,-0.04862440750002861,-0.16949427127838135,0.9843301773071289,1.0
6096881,0,4973,87.79900360107422,-1.0576269626617432,-1.6462609767913818,11.346763610839844,-0.07574699819087982,0.053755998611450195,3.181385040283203,233.36459350585938,285.41180419921875,126.928466796875,-115.57986450195312,14.1361083984375,-1.5060806274414062,-0.9918552041053772,0.12278594076633453,-0.03384380787611008,-0.11513830721378326,-0.9780092835426331,-0.17389877140522003,-0.05445198714733124,-0.16858582198619843,0.9841810464859009,1.0
6096891,0,4973,87.77300262451172,-1.1772680282592773,-1.1437690258026123,9.81535816192627,0.06108599901199341,0.10751199722290039,3.1887149810791016,237.19198608398438,289.2673645019531,128.81674194335938,-118.99949645996094,12.856246948242188,-1.5332441329956055,-0.9874062538146973,0.1542983055114746,-0.034918781369924545,-0.1460639387369156,-0.9739565849304199,-0.17341744899749756,-0.06076750159263611,-0.16613322496414185,0.9842283725738525,1.0
6096901,0,4973,87.73999786376953,-1.3495509624481201,-0.5072780251502991,8.403592109680176,0.05619899928569794,0.0,3.1911590099334717,241.01963806152344,293.03912353515625,130.68429565429688,-122.27897644042969,12.345672607421875,-1.4136533737182617,-0.9819881916046143,0.1856788992881775,-0.03494147211313248,-0.17705494165420532,-0.9689046740531921,-0.17284364998340607,-0.065948486328125,-0.16354398429393768,0.9843285083770752,1.0
6096911,0,4973,87.69000244140625,-0.18663999438285828,0.3637090027332306,7.125824928283691,0.03420799970626831,-0.06841599941253662,3.164280891418457,244.976806640625,297.0747985839844,132.98947143554688,-125.8620834350586,13.564926147460938,-1.279494285583496,-0.9756541848182678,0.21661676466464996,-0.034268658608198166,-0.20772776007652283,-0.9628830552101135,-0.17235147953033447,-0.07033104449510574,-0.16103701293468475,0.984438419342041,1.0
6096921,0,4972,87.65699768066406,0.1627109944820404,0.47856399416923523,5.761916160583496,0.12950299680233002,-0.09529399871826172,3.1593940258026123,248.9261474609375,301.0043640136719,135.04998779296875,-129.28640747070312,12.922744750976562,-1.3654718399047852,-0.9683666229248047,0.24725967645645142,-0.03357181325554848,-0.23819613456726074,-0.9560689330101013,-0.17086400091648102,-0.07434486597776413,-0.1574624478816986,0.9847216606140137,1.0
6096931,0,4973,87.61599731445312,0.04785599932074547,0.7178459763526917,4.445864200592041,-0.04398199915885925,-0.046424999833106995,3.1154119968414307,252.92852783203125,304.990966796875,137.2012939453125,-132.75381469726562,13.104049682617188,-1.317716121673584,-0.96021968126297,0.27729326486587524,-0.03293892368674278,-0.2679283618927002,-0.948118269443512,-0.17113076150417328,-0.07868354022502899,-0.1554979681968689,0.9846966862678528,1.0
6096941,0,4973,87.58799743652344,-2.1439690589904785,-1.4835500717163086,1.7228319644927979,-0.07330299913883209,-0.026877999305725098,3.1325159072875977,256.8810119628906,308.7586975097656,137.74417114257812,-136.0180206298828,11.909103393554688,-2.724647283554077,-0.9510825276374817,0.3072306513786316,-0.03239911049604416,-0.2975253164768219,-0.9391453862190247,-0.17170986533164978,-0.08318214118480682,-0.1536707878112793,0.9846137762069702,1.0
6096951,0,4973,87.55599975585938,-3.675374984741211,-2.368894100189209,0.6987040042877197,-0.15149399638175964,-0.16615499556064606,3.1593940258026123,260.8157958984375,312.3836975097656,139.66720581054688,-138.96725463867188,11.172576904296875,-1.0274465084075928,-0.9409652352333069,0.3371445834636688,-0.030271513387560844,-0.3273145854473114,-0.9290238618850708,-0.17256712913513184,-0.08630316704511642,-0.15247143805027008,0.9845316410064697,1.0
6096961,0,4973,87.53099822998047,-4.350151062011719,-2.7278170585632324,-0.5982049703598022,0.0048859999515116215,-0.019547000527381897,3.1716110706329346,264.679443359375,315.74041748046875,140.97235107421875,-141.56895446777344,9.743316650390625,-1.2981561422348022,-0.9298184514045715,0.36678823828697205,-0.030039677396416664,-0.3566337525844574,-0.9181967973709106,-0.17241424322128296,-0.09082198143005371,-0.14960086345672607,0.9845654964447021,1.0
6096971,0,4973,87.48999786376953,-5.254638195037842,-3.014955997467041,-1.8233299255371094,-0.07330299913883209,0.017103999853134155,3.19848895072937,268.5972595214844,319.16510009765625,142.41372680664062,-144.23553466796875,10.016204833984375,-1.2267265319824219,-0.9176201224327087,0.3963336944580078,-0.029853153973817825,-0.38577336072921753,-0.9062083959579468,-0.17310351133346558,-0.09566006809473038,-0.1473267823457718,0.9844502210617065,1.0
6096981,0,4973,87.4489974975586,-5.886343002319336,-2.684746026992798,-2.6081759929656982,-0.026877999305725098,-0.03176400065422058,3.2131500244140625,272.565673828125,322.6478576660156,144.3181610107422,-146.9253692626953,10.2332763671875,-0.7863681316375732,-0.9044362902641296,0.42559316754341125,-0.029389910399913788,-0.41473183035850525,-0.8933129906654358,-0.1731732338666916,-0.09995587170124054,-0.14443528652191162,0.9844518899917603,1.0
6096991,0,4974,87.41200256347656,-5.9198431968688965,-2.7038888931274414,-3.3260231018066406,0.026877999305725098,0.021990999579429626,3.222923994064331,276.55084228515625,326.10107421875,146.22296142578125,-149.548095703125,9.991790771484375,-0.7188148498535156,-0.8902599215507507,0.4544852077960968,-0.02964368648827076,-0.44325581192970276,-0.8795458674430847,-0.172982320189476,-0.1046910285949707,-0.14085954427719116,0.9844778180122375,1.0
