timestamp__ms,state_and_upcounter,temp__cc,pressure__kpa,accel_x__m_s2,accel_y__m_s2,accel_z__m_s2,gyro_x__dps,gyro_y__dps,gyro_z__dps,e_alt__m,e_vel__m_s,e_acc__m_s2,e_bias,innovation0,innovation1,r1c1,r1c2,r1c3,r2c1,r2c2,r2c3,r3c1,r3c2,r3c3,effort
1422110,0,3611,97.97799682617188,0.26799601316452026,1.0241279602050781,9.753144264221191,0.0,0.007329999934881926,0.00977300014346838,0.20124411582946777,0.44938334822654724,0.016712188720703125,9.736432075500488,0.3560006320476532,-0.057425498962402344,1.0,0.0,0.0,0.0,1.0,0.0,0.0,0.0,1.0,0.0
1422120,0,3612,97.9729995727539,0.27278101444244385,1.0193419456481934,9.805787086486816,-0.0024429999757558107,0.007329999934881926,0.00977300014346838,0.22044003009796143,0.5196438431739807,0.23295879364013672,9.572826385498047,0.14094090461730957,0.052642822265625,1.0,0.0,0.0,0.0,1.0,0.0,0.0,0.0,1.0,0.0
1422130,0,3611,97.97899627685547,0.2632099986076355,1.0289130210876465,9.82014274597168,-0.0024429999757558107,0.007329999934881926,0.007329999934881926,0.19307726621627808,0.36668047308921814,-0.12139129638671875,9.941534042358398,-0.31225699186325073,0.014357566833496094,1.0,0.0,0.0,0.0,1.0,0.0,0.0,0.0,1.0,0.0
1422140,0,3612,97.97799682617188,0.23449599742889404,1.0097709894180298,9.801000595092773,-0.0024429999757558107,0.0048859999515116215,0.0024429999757558107,0.20334412157535553,0.396963506937027,-0.06497859954833984,9.865979194641113,0.06333279609680176,-0.01914215087890625,1.0,0.0,0.0,0.0,1.0,0.0,0.0,0.0,1.0,0.0
1422150,0,3612,97.97899627685547,0.23449599742889404,1.0001989603042603,9.772287368774414,-0.0024429999757558107,0.007329999934881926,0.0048859999515116215,0.1856864094734192,0.2932131886482239,-0.3366584777832031,10.108945846557617,-0.2073105126619339,-0.028713226318359375,1.0,0.0,0.0,0.0,1.0,0.0,0.0,0.0,1.0,0.0
1422160,0,3612,97.97799682617188,0.19621099531650543,0.9762709736824036,9.805787086486816,-0.0024429999757558107,0.007329999934881926,0.0048859999515116215,0.15083882212638855,0.10979878902435303,-0.7314434051513672,10.537230491638184,-0.36203309893608093,0.033499717712402344,1.0,0.0,0.0,0.0,1.0,0.0,0.0,0.0,1.0,0.0
1422170,0,3612,97.97699737548828,0.2249249964952469,1.0001989603042603,9.82014274597168,-0.0024429999757558107,0.007329999934881926,0.007329999934881926,0.15414611995220184,0.11319231241941452,-0.6923952102661133,10.512537002563477,0.021531149744987488,0.014355659484863281,1.0,0.0,0.0,0.0,1.0,0.0,0.0,0.0,1.0,0.0
1422180,0,3612,97.97899627685547,0.26799601316452026,0.9475569725036621,9.757929801940918,-0.0024429999757558107,0.0048859999515116215,0.007329999934881926,0.13905031979084015,0.029062045738101006,-0.9346122741699219,10.692543029785156,-0.1552434265613556,-0.06221199035644531,1.0,0.0,0.0,0.0,1.0,0.0,0.0,0.0,1.0,0.0
1422190,0,3612,97.98100280761719,0.2584240138530731,1.0097709894180298,9.834500312805176,-0.0024429999757558107,0.0048859999515116215,0.012217000126838684,0.12476473301649094,-0.04955843463540077,-1.0258617401123047,10.860360145568848,-0.13929420709609985,0.0765695571899414,1.0,0.0,0.0,0.0,1.0,0.0,0.0,0.0,1.0,0.0
1422200,0,3612,97.9739990234375,0.2584240138530731,1.0241279602050781,9.77707290649414,-0.0024429999757558107,0.007329999934881926,0.014659999869763851,0.120294950902462,-0.07852090895175934,-1.1248779296875,10.90195083618164,-0.03760897368192673,-0.057425498962402344,1.0,0.0,0.0,0.0,1.0,0.0,0.0,0.0,1.0,0.0
1422210,0,3612,97.97799682617188,0.2871379852294922,1.038485050201416,9.82971477508545,-0.0024429999757558107,0.007329999934881926,0.014659999869763851,0.09793729335069656,-0.19235572218894958,-1.3178577423095703,11.147573471069336,-0.20627599954605103,0.052641868591308594,1.0,0.0,0.0,0.0,1.0,0.0,0.0,0.0,1.0,0.0
1422220,0,3611,97.9739990234375,0.2871379852294922,1.0241279602050781,9.748358726501465,-0.0024429999757558107,0.007329999934881926,0.014659999869763851,0.12212342768907547,-0.08073307573795319,-1.0995779037475586,10.847936630249023,0.25094544887542725,-0.08135700225830078,1.0,0.0,0.0,0.0,1.0,0.0,0.0,0.0,1.0,0.0
1422230,0,3612,97.97599792480469,0.22013899683952332,0.9379860162734985,9.796215057373047,-0.0048859999515116215,0.0048859999515116215,0.012217000126838684,0.11764661967754364,-0.10896223783493042,-1.0948429107666016,10.891057014465332,-0.0346522331237793,0.04785633087158203,1.0,0.0,0.0,0.0,1.0,0.0,0.0,0.0,1.0,0.0
1422240,0,3612,97.97899627685547,0.2584240138530731,1.0001989603042603,9.882356643676758,-0.0024429999757558107,0.0048859999515116215,0.007329999934881926,0.09531616419553757,-0.22092273831367493,-1.2521896362304688,11.134544372558594,-0.20311114192008972,0.08614253997802734,1.0,0.0,0.0,0.0,1.0,0.0,0.0,0.0,1.0,0.0
1422250,0,3612,97.97799682617188,0.21535399556159973,0.9427719712257385,9.77707290649414,-0.0024429999757558107,0.0048859999515116215,0.0048859999515116215,0.05618937313556671,-0.40916356444358826,-1.7688875198364258,11.545961380004883,-0.35332876443862915,-0.10528182983398438,1.0,0.0,0.0,0.0,1.0,0.0,0.0,0.0,1.0,0.0
1422260,0,3612,97.97899627685547,0.2967100143432617,0.9954140186309814,9.781858444213867,-0.0048859999515116215,0.0048859999515116215,0.0048859999515116215,0.03755033016204834,-0.49579057097435,-1.9277048110961914,11.709564208984375,-0.13861817121505737,0.004784584045410156,1.0,0.0,0.0,0.0,1.0,0.0,0.0,0.0,1.0,0.0
1422270,0,3611,97.97899627685547,0.31585198640823364,0.9906280040740967,9.824929237365723,-0.0048859999515116215,0.007329999934881926,0.0048859999515116215,0.0381627157330513,-0.4880497455596924,-1.8226585388183594,11.64758586883545,0.05432647094130516,0.04306983947753906,1.0,0.0,0.0,0.0,1.0,0.0,0.0,0.0,1.0,0.0
1422280,0,3612,97.9749984741211,0.29192399978637695,1.0001989603042603,9.844072341918945,-0.0024429999757558107,0.007329999934881926,0.007329999934881926,0.07496895641088486,-0.30708569288253784,-1.3323698043823242,11.17644214630127,0.40052473545074463,0.01914501190185547,1.0,0.0,0.0,0.0,1.0,0.0,0.0,0.0,1.0,0.0
1422290,0,3612,97.9749984741211,0.2871379852294922,0.9284150004386902,9.753144264221191,-0.0048859999515116215,0.007329999934881926,0.007329999934881926,0.06433890014886856,-0.35613295435905457,-1.503626823425293,11.2567720413208,-0.07183148711919785,-0.0909280776977539,1.0,0.0,0.0,0.0,1.0,0.0,0.0,0.0,1.0,0.0
1422300,0,3611,97.9749984741211,0.26799601316452026,0.9858419895172119,9.824929237365723,-0.0024429999757558107,0.007329999934881926,0.00977300014346838,0.06343010812997818,-0.35816386342048645,-1.4044418334960938,11.229369163513184,0.02615063637495041,0.07178401947021484,1.0,0.0,0.0,0.0,1.0,0.0,0.0,0.0,1.0,0.0
1422310,0,3612,97.98100280761719,0.2967100143432617,0.96670001745224,9.801000595092773,-0.0048859999515116215,0.007329999934881926,0.007329999934881926,0.017359215766191483,-0.5744558572769165,-1.9065284729003906,11.707530975341797,-0.40667155385017395,-0.023926734924316406,1.0,0.0,0.0,0.0,1.0,0.0,0.0,0.0,1.0,0.0
1422320,0,3612,97.97699737548828,0.27278101444244385,0.9475569725036621,9.896714210510254,-0.0024429999757558107,0.007329999934881926,0.0048859999515116215,0.0012837890535593033,-0.6423225998878479,-1.9310283660888672,11.827741622924805,-0.09812821447849274,0.09571170806884766,1.0,0.0,0.0,0.0,1.0,0.0,0.0,0.0,1.0,0.0
1422330,0,3612,97.97699737548828,0.19142499566078186,0.9284150004386902,10.418349266052246,-0.0048859999515116215,0.00977300014346838,0.007329999934881926,-0.004689833614975214,-0.6590288281440735,-1.4280662536621094,11.846409797668457,0.0052359881810843945,0.5216360092163086,1.0,0.0,0.0,0.0,1.0,0.0,0.0,0.0,1.0,0.0
1422340,0,3612,98.01799774169922,0.7513459920883179,0.3397800028324127,24.143579483032227,0.0024429999757558107,0.046424999833106995,0.00977300014346838,-0.37192800641059875,-2.3924825191497803,7.569221496582031,16.574203491210938,-3.4568490982055664,13.725235939025879,1.0,0.0,0.0,0.0,1.0,0.0,0.0,0.0,1.0,0.0
1422350,0,3611,98.01699829101562,-1.8568300008773804,1.2155530452728271,56.006404876708984,-0.02932099997997284,0.07330299913883209,-0.014659999869763851,-0.6979159116744995,-3.7587826251983643,34.49723815917969,21.508808135986328,-2.899508476257324,31.862979888916016,1.0,0.0,0.0,0.0,1.0,0.0,0.0,0.0,1.0,0.0
1422360,0,3612,98.00199890136719,-3.306879997253418,-4.953142166137695,72.71788024902344,-0.08307699859142303,0.07818999886512756,-0.18081599473953247,-0.8652604818344116,-4.040692329406738,48.927459716796875,23.790231704711914,-1.260514259338379,16.711833953857422,1.0,0.0,0.0,0.0,1.0,0.0,0.0,0.0,1.0,0.0
1422370,0,3611,97.9990005493164,-5.053640842437744,-4.814359188079834,86.95516967773438,-0.053755998611450195,0.007329999934881926,-0.4666999876499176,-1.017025351524353,-4.094017505645752,61.20091247558594,25.754093170166016,-1.0910415649414062,14.237480163574219,1.0,0.0,0.0,0.0,1.0,0.0,0.0,0.0,1.0,0.0
1422380,0,3612,97.9729995727539,2.871387004852295,3.440877914428711,88.4100112915039,-0.06597299873828888,0.017103999853134155,-0.5742130279541016,-0.9448705315589905,-2.9573781490325928,63.82992172241211,24.580074310302734,1.0549054145812988,1.4550094604492188,1.0,0.0,0.0,0.0,1.0,0.0,0.0,0.0,1.0,0.0
1422390,0,3612,97.9749984741211,1.0528409481048584,6.790830135345459,85.82575988769531,-0.1490509957075119,0.09040799736976624,-0.8478800058364868,-0.8337598443031311,-1.663533329963684,62.922325134277344,22.903459548950195,1.3181462287902832,-2.5842361450195312,1.0,0.0,0.0,0.0,1.0,0.0,0.0,0.0,1.0,0.0
1422400,0,3611,97.99199676513672,4.517649173736572,6.819543838500977,84.42835235595703,0.09529399871826172,-0.175928995013237,-1.1264350414276123,-0.8764562606811523,-1.1735656261444092,61.26142883300781,23.166934967041016,-0.2800092101097107,-1.397430419921875,1.0,0.0,0.0,0.0,1.0,0.0,0.0,0.0,1.0,0.0
1422410,0,3611,97.96299743652344,1.1581259965896606,3.2255239486694336,87.31887817382812,-0.1343899965286255,0.058642998337745667,-1.2999199628829956,-0.6390374302864075,0.6123761534690857,66.79490661621094,20.523944854736328,2.359280586242676,2.8905181884765625,1.0,0.0,0.0,0.0,1.0,0.0,0.0,0.0,1.0,0.0
1422420,0,3612,97.97899627685547,4.541576862335205,7.058825969696045,88.35736846923828,0.10262499749660492,-0.08307699859142303,-1.3512330055236816,-0.5548481345176697,1.6366063356399536,68.6282958984375,19.72905731201172,0.7163963913917542,1.0385208129882812,1.0,0.0,0.0,0.0,1.0,0.0,0.0,0.0,1.0,0.0
1422430,0,3612,97.98899841308594,0.5742769837379456,1.5361919403076172,89.1374282836914,0.03665100038051605,-0.07085999846458435,-1.3512330055236816,-0.5787099599838257,2.1147282123565674,68.87789916992188,20.259517669677734,-0.418562650680542,0.7800750732421875,1.0,0.0,0.0,0.0,1.0,0.0,0.0,0.0,1.0,0.0
1422440,0,3611,97.9489974975586,0.6460620164871216,0.11485499888658524,89.08478546142578,0.20036299526691437,-0.09529399871826172,-1.11177396774292,-0.2340255081653595,4.32966423034668,72.44456481933594,16.64021873474121,3.0687367916107178,-0.05263519287109375,1.0,0.0,0.0,0.0,1.0,0.0,0.0,0.0,1.0,0.0
1422450,0,3611,97.947998046875,0.6269189715385437,0.7082750201225281,89.1422119140625,0.18814599514007568,-0.16126799583435059,-1.0335830450057983,0.10373841226100922,6.4408159255981445,75.78556823730469,13.35664176940918,2.7883334159851074,0.05742645263671875,1.0,0.0,0.0,0.0,1.0,0.0,0.0,0.0,1.0,0.0
1422460,0,3612,97.98400115966797,-0.33499500155448914,-1.5361919403076172,88.71150207519531,0.10506799817085266,-0.10751199722290039,-0.9578359723091125,0.09069366008043289,6.811320781707764,74.45741271972656,14.25410270690918,-0.7788694500923157,-0.4307098388671875,1.0,0.0,0.0,0.0,1.0,0.0,0.0,0.0,1.0,0.0
1422470,0,3611,97.9749984741211,-3.259023904800415,-3.1298110485076904,89.27142333984375,0.15149399638175964,-0.1490509957075119,-1.0555739402770996,0.15463607013225555,7.518259048461914,74.90145874023438,14.369956970214844,-0.07567670941352844,0.559906005859375,1.0,0.0,0.0,0.0,1.0,0.0,0.0,0.0,1.0,0.0
1422480,0,3612,97.96399688720703,-3.024527072906494,0.8087739944458008,88.78807830810547,0.08552099764347076,-0.1148419976234436,-1.2461639642715454,0.3358202576637268,8.754817962646484,75.59656524658203,13.19152545928955,0.9803339838981628,-0.48333740234375,1.0,0.0,0.0,0.0,1.0,0.0,0.0,0.0,1.0,0.0
1422490,0,3611,97.97799682617188,-4.173081874847412,-1.9333999156951904,88.93643188476562,0.08552099764347076,-0.1148419976234436,-1.4880670309066772,0.3825933337211609,9.298352241516113,75.23440551757812,13.70202350616455,-0.4271482527256012,0.14833831787109375,1.0,0.0,0.0,0.0,1.0,0.0,0.0,0.0,1.0,0.0
1422500,0,3612,97.96700286865234,-1.3016949892044067,-1.3926219940185547,89.89834594726562,-0.012217000126838684,-0.051311999559402466,-1.7837259769439697,0.5197751522064209,10.243491172790527,76.60740661621094,13.29092788696289,0.38766583800315857,0.9619140625,1.0,0.0,0.0,0.0,1.0,0.0,0.0,0.0,1.0,0.0
1422510,0,3611,97.9729995727539,-0.5407770276069641,1.062412977218628,91.05168151855469,-0.07330299913883209,-0.03909499943256378,-1.7128649950027466,0.5969009399414062,10.870633125305176,77.3765640258789,13.675101280212402,-0.2793607711791992,1.153350830078125,1.0,0.0,0.0,0.0,1.0,0.0,0.0,0.0,1.0,0.0
1422520,0,3612,97.96800231933594,-0.11964099854230881,-1.1294119358062744,93.61200714111328,-0.11728599667549133,0.012217000126838684,-1.4391980171203613,0.7259297966957092,11.722848892211914,80.00086975097656,13.61110782623291,0.15774190425872803,2.5603408813476562,1.0,0.0,0.0,0.0,1.0,0.0,0.0,0.0,1.0,0.0
1422530,0,3612,97.96099853515625,-0.9714850187301636,-0.08135499805212021,93.6263656616211,-0.03176400065422058,0.019547000527381897,-1.2046250104904175,0.9035056233406067,12.791513442993164,80.6512451171875,12.975114822387695,0.5402012467384338,0.0143890380859375,1.0,0.0,0.0,0.0,1.0,0.0,0.0,0.0,1.0,0.0
1422540,0,3612,97.947998046875,-2.895314931869507,2.4598209857940674,93.52586364746094,-0.0048859999515116215,0.021990999579429626,-0.9724969863891602,1.189719557762146,14.33354377746582,82.29862213134766,11.22724723815918,1.4789509773254395,-0.100494384765625,1.0,0.0,0.0,0.0,1.0,0.0,0.0,0.0,1.0,0.0
1422550,0,3611,97.94400024414062,5.101497173309326,5.493919849395752,94.52127838134766,0.03665100038051605,-0.03909499943256378,-1.3072509765625,1.4871145486831665,15.871443748474121,84.94087219238281,9.58039665222168,1.4375187158584595,0.9954071044921875,1.0,0.0,0.0,0.0,1.0,0.0,0.0,0.0,1.0,0.0
1422560,0,3612,97.94999694824219,-2.4693920612335205,-4.95792818069458,96.0813980102539,0.12950299680233002,-0.05619899928569794,-1.138651967048645,1.7221388816833496,17.064437866210938,87.2409439086914,8.840435981750488,0.6908663511276245,1.5601272583007812,1.0,0.0,0.0,0.0,1.0,0.0,0.0,0.0,1.0,0.0
1422570,0,3611,97.9280014038086,-0.9762709736824036,1.2107679843902588,94.68399047851562,0.24678899347782135,-0.15149399638175964,-0.8307759761810303,2.1424202919006348,19.106281280517578,88.6815185546875,6.00248908996582,2.3514509201049805,-1.3973922729492188,1.0,0.0,0.0,0.0,1.0,0.0,0.0,0.0,1.0,0.0
1422580,0,3612,97.96499633789062,1.363908052444458,-0.39242199063301086,94.48299407958984,0.28099700808525085,-0.1417199969291687,-0.6426299810409546,2.2025797367095947,19.347827911376953,86.96087646484375,7.522120475769043,-1.2974815368652344,-0.20101165771484375,1.0,0.0,0.0,0.0,1.0,0.0,0.0,0.0,1.0,0.0
1422590,0,3612,97.93000030517578,-5.053640842437744,-3.7280168533325195,95.8325424194336,0.268779993057251,-0.12950299680233002,-0.535116970539093,2.5841526985168457,21.0935115814209,90.32233428955078,5.510194778442383,1.7615811824798584,1.34954833984375,1.0,0.0,0.0,0.0,1.0,0.0,0.0,0.0,1.0,0.0
1422600,0,3612,97.9520034790039,3.9720849990844727,-1.5218350887298584,96.2728271484375,0.2516759932041168,-0.16371099650859833,-0.26144999265670776,2.7336719036102295,21.6823787689209,89.99668884277344,6.276142120361328,-0.6320929527282715,0.44029998779296875,1.0,0.0,0.0,0.0,1.0,0.0,0.0,0.0,1.0,0.0
1422610,0,3612,97.95600128173828,-3.9481570720672607,0.96670001745224,97.4740219116211,0.22479799389839172,-0.13927699625492096,-0.3396410048007965,2.845749616622925,22.061477661132812,89.90628051757812,7.567730903625488,-1.0473418235778809,1.2011947631835938,0.9999929666519165,0.0034373451489955187,-0.0014941405970603228,-0.0034407193306833506,0.9999915361404419,-0.002256641397252679,0.0014863545075058937,0.002261777175590396,0.9999963045120239,0.0
1422620,0,3611,97.93699645996094,4.7473602294921875,3.2015960216522217,97.73722839355469,0.20036299526691437,-0.16615499556064606,-0.2956579923629761,3.1213650703430176,23.20134162902832,90.72763061523438,7.009596824645996,0.4841940402984619,0.263214111328125,0.9999740123748779,0.006431726273149252,-0.0032630781643092632,-0.006445607170462608,0.9999701976776123,-0.004262785892933607,0.0032355678267776966,0.00428370013833046,0.9999855756759644,0.0
1422630,0,3611,97.93399810791016,-0.33499500155448914,-2.3066799640655518,97.32566833496094,0.175928995013237,-0.15149399638175964,-0.2834410071372986,3.4056055545806885,24.33599853515625,90.87454223632812,6.45113468170166,0.45720958709716797,-0.41156005859375,0.9999447464942932,0.009301433339715004,-0.004889374598860741,-0.009330818429589272,0.9999383687973022,-0.006020504981279373,0.00483305798843503,0.006065804976969957,0.9999698996543884,0.0
1422640,0,3612,97.91500091552734,1.038485050201416,-0.043069999665021896,96.21539306640625,0.14660699665546417,-0.20036299526691437,-0.2638930082321167,3.842200756072998,26.14439582824707,91.9491958618164,4.266207218170166,1.8089845180511475,-1.1102828979492188,0.999903678894043,0.011974005028605461,-0.007006050553172827,-0.012026350013911724,0.999899685382843,-0.007475248072296381,0.006915811914950609,0.007558812852948904,0.9999474287033081,0.0
1422650,0,3611,97.95600128173828,1.1533399820327759,0.4498499929904938,95.40662384033203,0.09773799777030945,-0.1954759955406189,-0.2638930082321167,3.8787038326263428,25.969482421875,88.58534240722656,6.821293830871582,-2.2005887031555176,-0.80877685546875,0.9998514652252197,0.014647293835878372,-0.00907120481133461,-0.014723917469382286,0.9998559355735779,-0.008436291478574276,0.008946297690272331,0.008568637073040009,0.9999231696128845,0.0
1422660,0,3611,97.96299743652344,0.25363901257514954,-1.263409972190857,95.24869537353516,0.08063399791717529,-0.20524999499320984,-0.27366700768470764,3.846374034881592,25.441883087158203,85.08523559570312,10.16346263885498,-2.8421077728271484,-0.1579437255859375,0.9997851252555847,0.017417795956134796,-0.011233904398977757,-0.017521729692816734,0.9998039603233337,-0.00921907089650631,0.01107109896838665,0.009413952939212322,0.9998943209648132,0.0
1422670,0,3612,97.94000244140625,0.8997009992599487,-0.3828510046005249,94.66484832763672,0.053755998611450195,-0.21746699512004852,-0.27611100673675537,4.0205512046813965,25.88987159729004,83.57445526123047,11.090396881103516,-0.8100643157958984,-0.5838470458984375,0.9997043013572693,0.020214034244418144,-0.013515806756913662,-0.020346367731690407,0.9997456669807434,-0.009724716655910015,0.01331576332449913,0.009996876120567322,0.9998612999916077,0.0
1422680,0,3611,97.91300201416016,0.8805580139160156,-0.6508470177650452,94.59306335449219,0.026877999305725098,-0.22724099457263947,-0.28588399291038513,4.424683570861816,27.39814567565918,85.09989166259766,9.493169784545898,1.3522968292236328,-0.0717926025390625,0.9996066689491272,0.023110395297408104,-0.015890948474407196,-0.02327032759785652,0.999679684638977,-0.009952981024980545,0.015655813738703728,0.010318868793547153,0.9998241066932678,0.0
1422690,0,3611,97.91100311279297,0.39720800518989563,0.057427000254392624,94.3920669555664,0.00977300014346838,-0.23457199335098267,-0.28832799196243286,4.818333148956299,28.799419403076172,86.21253967285156,8.179523468017578,1.1064672470092773,-0.20099639892578125,0.9994929432868958,0.026033129543066025,-0.018335731700062752,-0.026219574734568596,0.999606192111969,-0.010001451708376408,0.018068114295601845,0.010477150790393353,0.9997817873954773,0.0
1422700,0,3612,97.91200256347656,0.45463600754737854,-0.4067789912223816,94.46863555908203,-0.04153800010681152,-0.25900599360466003,-0.2834410071372986,5.1744890213012695,29.965978622436523,87.00692749023438,7.461704254150391,0.6121401786804199,0.07657623291015625,0.9993610382080078,0.028916476294398308,-0.021010637283325195,-0.02912161871790886,0.9995304942131042,-0.009523127228021622,0.020725365728139877,0.010128897614777088,0.9997338056564331,0.0
1422710,0,3611,97.91300201416016,0.9379860162734985,-0.33499500155448914,94.1575698852539,-0.06841599941253662,-0.27366700768470764,-0.27366700768470764,5.494919776916504,30.91434097290039,86.89622497558594,7.261349678039551,0.1574263572692871,-0.31105804443359375,0.9992132782936096,0.03170888498425484,-0.023822374641895294,-0.03192542493343353,0.9994518160820007,-0.008764036931097507,0.023531386628746986,0.009517673403024673,0.9996777176856995,0.0
1422720,0,3611,97.91799926757812,0.837486982345581,-0.3876369893550873,94.69355773925781,-0.09529399871826172,-0.2834410071372986,-0.27366700768470764,5.745202541351318,31.48194694519043,86.6925048828125,8.001046180725098,-0.605954647064209,0.535980224609375,0.9990471601486206,0.0345095694065094,-0.026720546185970306,-0.03472726792097092,0.9993669986724854,-0.0077251894399523735,0.026436999440193176,0.008645731024444103,0.9996130466461182,0.0
1422730,0,3611,97.91999816894531,0.49292099475860596,-0.3828510046005249,94.99505615234375,-0.1221729964017868,-0.2981019914150238,-0.268779993057251,5.956363201141357,31.83397674560547,85.75940704345703,9.235641479492188,-1.0353341102600098,0.30150604248046875,0.9988622069358826,0.03727132827043533,-0.029752392321825027,-0.037477605044841766,0.9992769360542297,-0.006404382176697254,0.02949213609099388,0.007512097246944904,0.9995366930961609,0.0
1422740,0,3611,97.90599822998047,0.8135589957237244,-0.057427000254392624,94.44949340820312,-0.1490509957075119,-0.30787599086761475,-0.26144999265670776,6.275225639343262,32.673614501953125,85.1972885131836,9.252213478088379,-0.0361018180847168,-0.5455551147460938,0.998660147190094,0.0399714894592762,-0.03286757692694664,-0.04015049710869789,0.9991821050643921,-0.004802968353033066,0.032648660242557526,0.006116125266999006,0.9994480609893799,0.0
1422750,0,3612,97.91799926757812,0.6077759861946106,-0.6125620007514954,94.43035125732422,-0.175928995013237,-0.3200930058956146,-0.2516759932041168,6.4597978591918945,32.82746124267578,83.52457427978516,10.905773162841797,-1.4037680625915527,-0.0191497802734375,0.9984408020973206,0.04258744791150093,-0.03608905151486397,-0.042720407247543335,0.9990828037261963,-0.0029197533149272203,0.03593156114220619,0.004456890281289816,0.9993441700935364,0.0
1422760,0,3612,97.90399932861328,0.6556329727172852,-0.2440669983625412,94.77013397216797,-0.20036299526691437,-0.32986700534820557,-0.2443459928035736,6.7530364990234375,33.47574996948242,83.40510559082031,11.365019798278809,-0.3759279251098633,0.33979034423828125,0.9982035160064697,0.045144569128751755,-0.03939211368560791,-0.045210372656583786,0.9989771842956543,-0.0007799733430147171,0.0393165647983551,0.0025594604667276144,0.9992233514785767,0.0
1422770,0,3612,97.89800262451172,0.5072780251502991,-0.5455629825592041,95.52147674560547,-0.2492319941520691,-0.3591879904270172,-0.2296849936246872,7.075766563415527,34.23257064819336,83.93765258789062,11.583820343017578,-0.1552882194519043,0.7513504028320312,0.9979431629180908,0.047581713646650314,-0.042959339916706085,-0.04754532128572464,0.9988672733306885,0.0018695518374443054,0.04299959912896156,0.00017677736468613148,0.9990748763084412,0.0
1422780,0,3611,97.89399719238281,0.6221330165863037,-0.023927999660372734,94.70313262939453,-0.268779993057251,-0.3640750050544739,-0.22479799389839172,7.407797813415527,35.00285339355469,82.99453735351562,11.708598136901855,-0.13893365859985352,-0.8183364868164062,0.9976640939712524,0.04998709261417389,-0.04655879735946655,-0.04982088878750801,0.998746931552887,0.004724910948425531,0.04673659801483154,-0.0023943178821355104,0.9989041686058044,0.0
1422790,0,3611,97.8759994506836,0.3589229881763458,-0.1627109944820404,94.72227478027344,-0.2907710075378418,-0.3738490045070648,-0.21991099417209625,7.874849319458008,36.37095642089844,84.28813171386719,10.43414306640625,1.0821094512939453,0.01914215087890625,0.9973636865615845,0.052363451570272446,-0.050237011164426804,-0.052035633474588394,0.9986146092414856,0.007812930271029472,0.05057648569345474,-0.005178261548280716,0.9987065196037292,0.0
1422800,0,3612,97.88099670410156,0.2249249964952469,0.21056799590587616,96.2776107788086,-0.30787599086761475,-0.3860659897327423,-0.21258099377155304,8.26027774810791,37.29729080200195,85.9671630859375,10.310426712036133,0.16781044006347656,1.5553359985351562,0.9970412254333496,0.054685745388269424,-0.05401989445090294,-0.05416351556777954,0.9984704852104187,0.011086168698966503,0.054543495178222656,-0.008127497509121895,0.9984779953956604,0.0
1422810,0,3611,97.875,0.803987979888916,-0.13878299295902252,94.71270751953125,-0.32742300629615784,-0.398283988237381,-0.21258099377155304,8.66815185546875,38.30287170410156,84.8226089477539,9.890121459960938,0.29339027404785156,-1.56488037109375,0.9966918230056763,0.05702999606728554,-0.057905182242393494,-0.056276142597198486,0.9983088374137878,0.01456922572106123,0.05863809958100319,-0.011262398213148117,0.9982154369354248,0.0
1422820,0,3612,97.88999938964844,0.6604189872741699,0.25363901257514954,95.00941467285156,-0.3469710052013397,-0.40316998958587646,-0.2028069943189621,8.90676212310791,38.44231033325195,83.42543029785156,11.583984375,-1.4252033233642578,0.29668426513671875,0.9963242411613464,0.059300497174263,-0.06181880086660385,-0.05827540159225464,0.9981334805488586,0.018258053809404373,0.06278607249259949,-0.014588487334549427,0.997920036315918,0.0
1422830,0,3612,97.88600158691406,-0.09092699736356735,-0.34935200214385986,94.55956268310547,-0.3714050054550171,-0.41538798809051514,-0.1832589954137802,9.157853126525879,38.6209716796875,81.44332885742188,13.116238594055176,-1.3182449340820312,-0.44985198974609375,0.9959397315979004,0.06140479817986488,-0.06583026051521301,-0.06006094813346863,0.997947633266449,0.022205166518688202,0.06705859303474426,-0.018161244690418243,0.9975833892822266,0.0
1422840,0,3611,97.8740005493164,0.12442599982023239,-0.39242199063301086,94.77491760253906,-0.43004900217056274,-0.4178310036659241,-0.17348499596118927,9.492791175842285,39.171539306640625,81.0230712890625,13.751839637756348,-0.5305871963500977,0.2153472900390625,0.9955387115478516,0.06346562504768372,-0.06982004642486572,-0.061729952692985535,0.9977344274520874,0.026745548471808434,0.07135921716690063,-0.022316310554742813,0.9972006678581238,0.0
1422850,0,3612,97.87899780273438,0.08614099770784378,-0.06699900329113007,95.28697967529297,-0.4520399868488312,-0.4178310036659241,-0.16126799583435059,9.752486228942871,39.3330078125,79.97325897216797,15.313712120056152,-1.3045120239257812,0.5120697021484375,0.9951250553131104,0.06543698906898499,-0.07378526777029037,-0.06325677782297134,0.9974995851516724,0.03151119500398636,0.07566270977258682,-0.026690222322940826,0.9967758655548096,0.0
1422860,0,3611,97.86699676513672,0.4067789912223816,-0.03349899873137474,94.98548126220703,-0.4862479865550995,-0.43004900217056274,-0.1490509957075119,10.09501838684082,39.871482849121094,79.06697845458984,15.918510437011719,-0.5253334045410156,-0.30149078369140625,0.9946898818016052,0.06733010709285736,-0.07783882319927216,-0.06463605910539627,0.9972363114356995,0.03663092106580734,0.0800899863243103,-0.03140528127551079,0.9962924718856812,0.0
1422870,0,3611,97.85900115966797,-0.07656999677419662,-0.07178399711847305,95.3635482788086,-0.510683000087738,-0.4324919879436493,-0.13683299720287323,10.478949546813965,40.57281494140625,79.21531677246094,16.14822769165039,-0.17963218688964844,0.37805938720703125,0.994240403175354,0.06914022564888,-0.0818890631198883,-0.06586904078722,0.9969438910484314,0.04200028255581856,0.0845426395535469,-0.03636448085308075,0.9957557320594788,0.0
1422880,0,3611,97.85800170898438,-0.11485499888658524,0.3589229881763458,95.84211730957031,-0.5375609993934631,-0.4398219883441925,-0.1270589977502823,10.838178634643555,41.12438201904297,79.10094451904297,16.74117660522461,-0.4837617874145508,0.47857666015625,0.9937711358070374,0.07089583575725555,-0.08598223328590393,-0.06697653979063034,0.9966161847114563,0.04764602333307266,0.08906912058591843,-0.041590508073568344,0.9951564073562622,0.0
1422890,0,3611,97.85900115966797,0.009571000002324581,0.1627109944820404,95.40184020996094,-0.5619950294494629,-0.44470900297164917,-0.11972899734973907,11.155815124511719,41.450233459472656,77.57926940917969,17.82257843017578,-0.9353227615356445,-0.440277099609375,0.9932820200920105,0.07262151688337326,-0.09009493142366409,-0.06798211485147476,0.996248722076416,0.05354141816496849,0.09364514797925949,-0.04705694317817688,0.9944926500320435,0.0
1422900,0,3612,97.86100006103516,-0.39242199063301086,0.4977070093154907,95.13862609863281,-0.6035339832305908,-0.44470900297164917,-0.09529399871826172,11.425102233886719,41.51517105102539,75.64395141601562,19.494678497314453,-1.4293594360351562,-0.26322174072265625,0.9927902221679688,0.07416516542434692,-0.09416574239730835,-0.06871609389781952,0.9958391189575195,0.05985233932733536,0.0982128158211708,-0.0529501736164093,0.9937554597854614,0.0
1422910,0,3611,97.85600280761719,-0.5168489813804626,0.6125620007514954,95.67940521240234,-0.6255249977111816,-0.44226598739624023,-0.07818999886512756,11.712010383605957,41.64213562011719,74.66719055175781,21.012210845947266,-1.2657279968261719,0.5407791137695312,0.9922937750816345,0.07558406889438629,-0.09818468242883682,-0.06925172358751297,0.9953880906105042,0.0663808137178421,0.10274912416934967,-0.05906986445188522,0.9929515719413757,0.0
1422920,0,3611,97.84200286865234,-0.5982049703598022,0.45463600754737854,96.0813980102539,-0.6450729966163635,-0.44470900297164917,-0.06108599901199341,12.096704483032227,42.21974182128906,74.64936828613281,21.432025909423828,-0.33995914459228516,0.40200042724609375,0.9917885661125183,0.07687757164239883,-0.10220222175121307,-0.06958508491516113,0.9948936104774475,0.07310453057289124,0.10730036348104477,-0.06539253890514374,0.9920735359191895,0.0
1422930,0,3611,97.83899688720703,-0.6604189872741699,0.6843469738960266,95.64112091064453,-0.6670640110969543,-0.44226598739624023,-0.04398199915885925,12.473569869995117,42.7322998046875,73.67566680908203,21.965456008911133,-0.47038841247558594,-0.44026947021484375,0.9912802577018738,0.07804974913597107,-0.10616826266050339,-0.06971883028745651,0.9943500757217407,0.08004298806190491,0.1118156760931015,-0.07194316387176514,0.9911210536956787,0.0
1422940,0,3611,97.83599853515625,-0.799202024936676,1.0001989603042603,95.53105163574219,-0.6866120100021362,-0.44226598739624023,-0.02932099997997284,12.84280014038086,43.17450714111328,72.872802734375,22.658248901367188,-0.5922603607177734,-0.11006927490234375,0.9907650947570801,0.07912387698888779,-0.11010914295911789,-0.06967474520206451,0.9937535524368286,0.08717218041419983,0.11631867289543152,-0.0786953791975975,0.9900891184806824,0.0
1422950,0,3611,97.85199737548828,-0.8853440284729004,1.038485050201416,95.23433685302734,-0.7061600089073181,-0.43737900257110596,-0.00977300014346838,13.032732963562012,42.73292922973633,69.8167495727539,25.417585372924805,-2.3532018661499023,-0.29671478271484375,0.9902529716491699,0.08005286753177643,-0.1139768734574318,-0.06940805166959763,0.9931033849716187,0.09448719024658203,0.12075471132993698,-0.08565536141395569,0.9889797568321228,0.0
1422960,0,3611,97.84300231933594,-0.8853440284729004,1.182054042816162,96.038330078125,-0.7257069945335388,-0.4324919879436493,0.014659999869763851,13.280160903930664,42.55670928955078,68.51028442382812,27.528038024902344,-1.758169174194336,0.8039932250976562,0.9897488951683044,0.08078956604003906,-0.11777235567569733,-0.06887038052082062,0.9923986792564392,0.10198630392551422,0.1251164972782135,-0.09282985329627991,0.9877894520759583,0.0
1422970,0,3611,97.82499694824219,-1.3782650232315063,1.5361919403076172,96.45946502685547,-0.7574719786643982,-0.42271798849105835,0.046424999833106995,13.662944793701172,43.02149200439453,68.38923645019531,28.070219039916992,-0.4430093765258789,0.421142578125,0.9892658591270447,0.08127700537443161,-0.12143877148628235,-0.06799421459436417,0.9916266798973083,0.10978537052869797,0.1293448954820633,-0.10034983605146408,0.9865086674690247,0.0
1422980,0,3612,97.81700134277344,-1.5074779987335205,2.234895944595337,95.29176330566406,-0.7696899771690369,-0.4129439890384674,0.06108599901199341,14.08232307434082,43.63740539550781,67.1160659790039,28.175704956054688,-0.13667964935302734,-1.167694091796875,0.9887913465499878,0.08166200667619705,-0.12499319761991501,-0.066950224339962,0.9907909035682678,0.11768872290849686,0.13345275819301605,-0.10800131410360336,0.9851526021957397,0.0
1422990,0,3611,97.8219985961914,-1.6031910181045532,2.502892017364502,95.83733367919922,-0.7819070219993591,-0.398283988237381,0.08307699859142303,14.418179512023926,43.813316345214844,66.46195220947266,29.3753719329834,-0.9958381652832031,0.545562744140625,0.9883388876914978,0.08187206089496613,-0.12838846445083618,-0.06567315757274628,0.9898930788040161,0.12569177150726318,0.1373814195394516,-0.11579442769289017,0.9837263822555542,0.0
1423000,0,3611,97.81900024414062,-1.497905969619751,2.1774680614471436,96.0909652709961,-0.7892370223999023,-0.38362300395965576,0.09773799777030945,14.747696876525879,43.9442253112793,65.43869018554688,30.652278900146484,-1.0731678009033203,0.25363922119140625,0.9879040718078613,0.08197303861379623,-0.1316298246383667,-0.06423802673816681,0.9889314770698547,0.13374502956867218,0.1411362886428833,-0.12367165833711624,0.9822349548339844,0.0
1423010,0,3612,97.81099700927734,-1.1581259965896606,2.732603073120117,96.12925720214844,-0.7990109920501709,-0.38117900490760803,0.1148419976234436,15.116313934326172,44.245330810546875,64.6379165649414,31.49134063720703,-0.7103700637817383,0.0382843017578125,0.9874739050865173,0.08194389939308167,-0.1348370462656021,-0.06260630488395691,0.987902045249939,0.14187946915626526,0.14483188092708588,-0.13166065514087677,0.9806573987007141,0.0
1423020,0,3611,97.81300354003906,0.06699900329113007,2.359323024749756,95.13384246826172,-0.8063409924507141,-0.390953004360199,0.1221729964017868,15.431049346923828,44.26736068725586,62.21028137207031,32.92356872558594,-1.2554197311401367,-0.9954147338867188,0.9870235919952393,0.08187883347272873,-0.13813342154026031,-0.06085718423128128,0.9867994785308838,0.1500772088766098,0.1485980600118637,-0.13972336053848267,0.9789769053459167,0.0
1423030,0,3611,97.80699920654297,-1.2155530452728271,3.282952070236206,95.92346954345703,-0.8161150217056274,-0.4007270038127899,0.16126799583435059,15.767321586608887,44.36732482910156,61.724891662597656,34.198570251464844,-1.0498991012573242,0.7896194458007812,0.9865778684616089,0.08146907389163971,-0.14151838421821594,-0.05867573618888855,0.9856364727020264,0.15836019814014435,0.15238706767559052,-0.14793097972869873,0.9771870374679565,0.0
1423040,0,3611,97.78299713134766,-0.5072780251502991,3.378664970397949,95.28219604492188,-0.8185589909553528,-0.4056139886379242,0.17104199528694153,16.28644561767578,45.32959747314453,61.93182373046875,33.35037612915039,0.693756103515625,-0.641265869140625,0.9861183762550354,0.08099490404129028,-0.14495129883289337,-0.05635792016983032,0.9844039678573608,0.16665105521678925,0.1561884731054306,-0.15616852045059204,0.9753032326698303,0.0
1423050,0,3612,97.7959976196289,-1.497905969619751,4.364508152008057,95.13862609863281,-0.8136720061302185,-0.41050100326538086,0.1832589954137802,16.642488479614258,45.470455169677734,60.66118621826172,34.477439880371094,-0.9620780944824219,-0.1435699462890625,0.9856463074684143,0.08042218536138535,-0.1484386920928955,-0.053879376500844955,0.983115017414093,0.17487627267837524,0.15999619662761688,-0.16436836123466492,0.9733365774154663,0.0
1423060,0,3612,97.7770004272461,-1.3878369331359863,4.493720054626465,95.3539810180664,-0.8087850213050842,-0.40316998958587646,0.20524999499320984,17.134428024291992,46.240142822265625,61.25275421142578,34.101226806640625,0.32790565490722656,0.21535491943359375,0.9851871728897095,0.07965432852506638,-0.15186123549938202,-0.05116584897041321,0.9817752838134766,0.18302802741527557,0.163672536611557,-0.17254675924777985,0.9713077545166016,0.0
1423070,0,3611,97.76799774169922,-1.5409770011901855,4.627717971801758,95.3300552368164,-0.7892370223999023,-0.4007270038127899,0.23212799429893494,17.663379669189453,47.155357360839844,61.947296142578125,33.38275909423828,0.6086330413818359,-0.02392578125,0.9847371578216553,0.07862025499343872,-0.15528060495853424,-0.048162687569856644,0.980414628982544,0.19096408784389496,0.16725298762321472,-0.18057067692279816,0.9692370891571045,0.0
1423080,0,3611,97.76000213623047,-2.464607000350952,5.163711071014404,94.64092254638672,-0.7721329927444458,-0.39583998918533325,0.2492319941520691,18.217729568481445,48.154823303222656,62.19152069091797,32.44941329956055,0.764068603515625,-0.6891326904296875,0.9842916131019592,0.07741880416870117,-0.15867215394973755,-0.04497242718935013,0.9790264964103699,0.1987067461013794,0.17072786390781403,-0.18844948709011078,0.967129111289978,0.0
1423090,0,3612,97.76799774169922,-1.5840480327606201,5.599204063415527,94.56434631347656,-0.7525849938392639,-0.3933970034122467,0.2981019914150238,18.6508731842041,48.5311279296875,61.53651809692383,33.02782440185547,-0.49386024475097656,-0.0765838623046875,0.9838700294494629,0.0757322832942009,-0.16206401586532593,-0.041281454265117645,0.9776317477226257,0.20623242855072021,0.17405734956264496,-0.1962156444787979,0.9649888277053833,0.0
1423100,0,3611,97.74800109863281,-2.4502499103546143,6.556333065032959,94.48777770996094,-0.6890550255775452,-0.3665190041065216,0.3738490045070648,19.223051071166992,49.54597854614258,62.410335540771484,32.07744598388672,0.8032741546630859,-0.076568603515625,0.9835295081138611,0.07322250306606293,-0.16525301337242126,-0.036881737411022186,0.9763338565826416,0.21310050785541534,0.17694585025310516,-0.2034957855939865,0.9629536271095276,0.0
1423110,0,3611,97.74299621582031,-2.6177470684051514,6.5994038581848145,93.693359375,-0.6621770262718201,-0.3591879904270172,0.4178310036659241,19.78989028930664,50.49553298950195,62.425025939941406,31.26833724975586,0.6544055938720703,-0.7944183349609375,0.9832106232643127,0.07025840878486633,-0.16840678453445435,-0.03204823657870293,0.975045919418335,0.21967753767967224,0.1796385496854782,-0.210592120885849,0.9609271287918091,0.0
1423120,0,3611,97.72200012207031,-1.8999009132385254,5.862414836883545,92.91329956054688,-0.632856011390686,-0.35430100560188293,0.45692700147628784,20.496036529541016,52.064151763916016,63.92014694213867,28.993160247802734,1.8989028930664062,-0.780059814453125,0.9829022288322449,0.06688226759433746,-0.17155244946479797,-0.026826273649930954,0.9737716317176819,0.22594039142131805,0.1821642965078354,-0.21747517585754395,0.958916425704956,0.0
1423130,0,3612,97.71299743652344,-2.6416759490966797,7.422534942626953,92.54002380371094,-0.6084210276603699,-0.34208399057388306,0.4886919856071472,21.224042892456055,53.676795959472656,65.87157440185547,26.66845703125,1.9573593139648438,-0.37328338623046875,0.9826082587242126,0.06317263096570969,-0.17461521923542023,-0.02130662277340889,0.972497820854187,0.23193493485450745,0.18446484208106995,-0.2241806834936142,0.95693039894104,0.0
1423140,0,3612,97.71199798583984,-3.5844478607177734,7.245466232299805,92.30552673339844,-0.5742130279541016,-0.3323099911212921,0.5057960152626038,21.899703979492188,54.98202133178711,67.18038940429688,25.125141143798828,1.2999820709228516,-0.23450469970703125,0.982312798500061,0.05925457924604416,-0.17762503027915955,-0.015629347413778305,0.9712450504302979,0.23756782710552216,0.1865943819284439,-0.23058971762657166,0.9549925923347473,0.0
1423150,0,3612,97.6969985961914,-3.0867409706115723,7.82452917098999,91.90831756591797,-0.535116970539093,-0.3176490068435669,0.5497779846191406,22.65228843688965,56.60456466674805,69.05522918701172,22.85309600830078,1.9117107391357422,-0.39720916748046875,0.9820377230644226,0.0548529252409935,-0.18053600192070007,-0.00954799447208643,0.9700311422348022,0.24279220402240753,0.1884433627128601,-0.23670732975006104,0.9531310200691223,0.0
1423160,0,3611,97.68699645996094,-3.7663021087646484,7.810172080993652,91.90831756591797,-0.49846500158309937,-0.2932150065898895,0.5791000127792358,23.431447982788086,58.29475021362305,71.42422485351562,20.484094619750977,2.0100250244140625,-7.62939453125e-06,0.9817883372306824,0.05011313408613205,-0.183249831199646,-0.0032323584891855717,0.9688483476638794,0.24763299524784088,0.18995091319084167,-0.24253086745738983,0.9513660073280334,0.0
1423170,0,3611,97.67900085449219,-3.421736001968384,8.087739944458008,92.36295318603516,-0.41538798809051514,-0.25411900877952576,0.6401860117912292,24.216920852661133,59.95758056640625,74.10523986816406,18.257705688476562,1.907388687133789,0.4546356201171875,0.9816028475761414,0.0446343831717968,-0.1856439709663391,0.0035842282231897116,0.9678130149841309,0.25164398550987244,0.19090057909488678,-0.24767987430095673,0.9498481154441833,0.0
1423180,0,3611,97.67400360107422,-3.7184460163116455,8.633302688598633,91.71210479736328,-0.3714050054550171,-0.2296849936246872,0.6890550255775452,24.980695724487305,61.46384048461914,75.29884338378906,16.413267135620117,1.5386543273925781,-0.6508407592773438,0.9814407229423523,0.03860443830490112,-0.18783995509147644,0.01081517431885004,0.9668253064155579,0.2552085816860199,0.19146057963371277,-0.2525036334991455,0.9484643340110779,0.0
1423190,0,3611,97.67500305175781,-2.761317014694214,8.705087661743164,91.70732116699219,-0.32986700534820557,-0.21502399444580078,0.7330380082130432,25.669315338134766,62.55160140991211,76.087646484375,15.619672775268555,0.6731472015380859,-0.004791259765625,0.9812736511230469,0.03207346424460411,-0.18992961943149567,0.018434900790452957,0.9658744931221008,0.25835251808166504,0.1917344033718109,-0.2570159137248993,0.9471961855888367,0.0
1423200,0,3611,97.66100311279297,-3.2446670532226562,8.666803359985352,91.78388977050781,-0.28099700808525085,-0.2028069943189621,0.7672460079193115,26.422504425048828,63.903053283691406,77.5601577758789,14.22372817993164,1.1875076293945312,0.076568603515625,0.981086015701294,0.02512156218290329,-0.19193513691425323,0.02635294198989868,0.9649768471717834,0.2610068917274475,0.19176985323429108,-0.26112833619117737,0.9460634589195251,0.0
1423210,0,3611,97.66699981689453,-2.7134599685668945,8.915657043457031,91.02775573730469,-0.2296849936246872,-0.1832589954137802,0.801455020904541,27.055021286010742,64.62911224365234,76.72262573242188,14.305135726928711,-0.09962272644042969,-0.756134033203125,0.9808846712112427,0.017741980031132698,-0.19377952814102173,0.034548185765743256,0.9641350507736206,0.26315274834632874,0.19149848818778992,-0.2648172676563263,0.9450925588607788,0.0
1423220,0,3611,97.66999816894531,-3.397808074951172,9.011368751525879,91.99445343017578,-0.17837199568748474,-0.1685979962348938,0.8307759761810303,27.60090446472168,64.8993148803711,76.46539306640625,15.529054641723633,-0.9993991851806641,0.9666900634765625,0.9806520938873291,0.009980756789445877,-0.19550412893295288,0.04298446327447891,0.9633467197418213,0.2647918462753296,0.19098109006881714,-0.26807236671447754,0.9442791938781738,0.0
1423230,0,3612,97.63700103759766,-2.526819944381714,9.298507690429688,90.8506851196289,-0.08063399791717529,-0.1490509957075119,0.8796449899673462,28.39070701599121,66.31710815429688,76.9239501953125,13.926746368408203,1.3132972717285156,-1.1437606811523438,0.9803909063339233,0.00155345827806741,-0.1970566213130951,0.05183577910065651,0.9627209305763245,0.2654822766780853,0.19012293219566345,-0.2704910337924957,0.943762481212616,0.0
1423240,0,3612,97.65799713134766,-2.6416759490966797,9.064011573791504,90.39604949951172,-0.04398199915885925,-0.1490509957075119,0.9138540029525757,28.920921325683594,66.43408966064453,74.94517517089844,15.450872421264648,-1.3115406036376953,-0.45464324951171875,0.9800507426261902,-0.007277811411768198,-0.1986144483089447,0.061011653393507004,0.9620938301086426,0.2658051550388336,0.18915122747421265,-0.2726203501224518,0.9433448910713196,0.0
1423250,0,3611,97.63400268554688,-2.1152548789978027,9.681360244750977,89.83134460449219,0.00977300014346838,-0.13927699625492096,0.9529489874839783,29.61384391784668,67.30194091796875,74.6879653930664,15.143388748168945,0.23807716369628906,-0.5647048950195312,0.9796404242515564,-0.016595257446169853,-0.20007337629795074,0.07053211331367493,0.9614987969398499,0.26560232043266296,0.18796253204345703,-0.27430638670921326,0.9430936574935913,0.0
1423260,0,3612,97.62999725341797,-2.464607000350952,9.241080284118652,89.89834594726562,0.06108599901199341,-0.13927699625492096,0.9847139716148376,30.278430938720703,67.99081420898438,74.61428833007812,15.284061431884766,-0.11664772033691406,0.06699371337890625,0.9791308045387268,-0.02632264420390129,-0.20151956379413605,0.08035167306661606,0.9609242081642151,0.26489192247390747,0.18667231500148773,-0.2755562961101532,0.9429855346679688,0.0
1423270,0,3611,97.625,-2.416749954223633,9.533004760742188,90.0610580444336,0.11728599667549133,-0.13927699625492096,1.014035940170288,30.92508316040039,68.56059265136719,74.35130310058594,15.709758758544922,-0.3546180725097656,0.16271209716796875,0.9785124659538269,-0.036446064710617065,-0.20294110476970673,0.09044595062732697,0.9603748321533203,0.26362714171409607,0.18529129028320312,-0.27631765604019165,0.9430351257324219,0.0
1423280,0,3611,97.62100219726562,-2.2875380516052246,8.901300430297852,89.62556457519531,0.16615499556064606,-0.13683299720287323,1.0335830450057983,31.545557022094727,68.97584533691406,73.15859985351562,16.466968536376953,-0.6600608825683594,-0.4355010986328125,0.9777852296829224,-0.04685505852103233,-0.2043052464723587,0.10071372240781784,0.9598305225372314,0.2618809640407562,0.18382787704467773,-0.2766397297382355,0.9432271122932434,0.0
1423290,0,3612,97.62799835205078,-2.4502499103546143,9.537790298461914,89.68777465820312,0.21991099417209625,-0.1343899965286255,1.0409140586853027,32.04166793823242,68.76669311523438,70.98841857910156,18.699350357055664,-1.8915939331054688,0.0622100830078125,0.976949155330658,-0.057440053671598434,-0.20559875667095184,0.11103704571723938,0.9593092203140259,0.25960737466812134,0.18232083320617676,-0.27645233273506165,0.9435744881629944,0.0
1423300,0,3611,97.60399627685547,-2.4119648933410645,9.159724235534668,90.01319885253906,0.31520599126815796,-0.12461599707603455,1.089782953262329,32.70111083984375,69.32508850097656,70.93934631347656,19.073848724365234,-0.3045997619628906,0.32543182373046875,0.9759874939918518,-0.06869205832481384,-0.2067112922668457,0.12179489433765411,0.9588616490364075,0.25641706585884094,0.18059363961219788,-0.27543628215789795,0.9442036151885986,0.0
1423310,0,3612,97.6050033569336,-3.1824541091918945,8.786443710327148,89.52027893066406,0.351857990026474,-0.12950299680233002,1.097113013267517,33.28773880004883,69.50919342041016,69.22502899169922,20.295249938964844,-1.0562362670898438,-0.492919921875,0.974885880947113,-0.08008382469415665,-0.2078070342540741,0.13262583315372467,0.9583702087402344,0.25285613536834717,0.17890632152557373,-0.2740665078163147,0.9449231624603271,0.0
1423320,0,3611,97.60399627685547,-2.895314931869507,8.446662902832031,88.98907470703125,0.40805700421333313,-0.1221729964017868,1.1093310117721558,33.82377624511719,69.4266128540039,66.88287353515625,22.106216430664062,-1.5580062866210938,-0.5312042236328125,0.9736618995666504,-0.09170256555080414,-0.20874086022377014,0.14354471862316132,0.9578705430030823,0.24875348806381226,0.17713530361652374,-0.2721655070781708,0.9458059072494507,0.0
1423330,0,3612,97.59500122070312,-2.871387004852295,7.8723859786987305,89.49156188964844,0.44470900297164917,-0.11972899734973907,1.1215479373931885,34.384464263916016,69.4426040649414,65.81426239013672,23.677295684814453,-1.3127098083496094,0.502471923828125,0.9723005294799805,-0.10350614786148071,-0.20956550538539886,0.1545630246400833,0.9573042392730713,0.24429120123386383,0.1753322333097458,-0.2699156105518341,0.946786105632782,0.0
1423340,0,3611,97.60199737548828,-3.196810007095337,7.551747798919678,89.26663970947266,0.4813610017299652,-0.1148419976234436,1.1288779973983765,34.82345199584961,68.86714935302734,62.67658996582031,26.590045928955078,-2.48046875,-0.22492218017578125,0.9708077907562256,-0.11544530838727951,-0.21024778485298157,0.16562695801258087,0.956670880317688,0.2394743710756302,0.17349164187908173,-0.2673063278198242,0.947864830493927,0.0
1423350,0,3611,97.58799743652344,-3.2255239486694336,6.891328811645508,89.50592041015625,0.510683000087738,-0.10995499789714813,1.1435389518737793,35.337974548339844,68.64863586425781,60.901283264160156,28.604629516601562,-1.69964599609375,0.239288330078125,0.969171404838562,-0.12757375836372375,-0.21078699827194214,0.17680564522743225,0.9559328556060791,0.23437494039535522,0.17159804701805115,-0.2644178569316864,0.9490190148353577,0.0
1423360,0,3611,97.59500122070312,-3.268594980239868,6.230909824371338,89.33842468261719,0.5400040149688721,-0.09529399871826172,1.1508690118789673,35.73347854614258,67.85577392578125,57.419525146484375,31.918903350830078,-2.8188247680664062,-0.16748809814453125,0.9674168825149536,-0.13981786370277405,-0.2110806405544281,0.18800514936447144,0.955095112323761,0.22901271283626556,0.16958196461200714,-0.2612350583076477,0.9502620697021484,0.0
1423370,0,3611,97.58499908447266,-3.6562318801879883,5.283351898193359,88.48179626464844,0.5839869976043701,-0.08063399791717529,1.163087010383606,36.17091369628906,67.26661682128906,53.84669494628906,34.63510513305664,-2.3392257690429688,-0.85662841796875,0.9655337333679199,-0.1522528976202011,-0.21109968423843384,0.19927220046520233,0.9541742205619812,0.22325195372104645,0.16743510961532593,-0.2576236426830292,0.951627790927887,0.0
1423380,0,3611,97.57499694824219,-3.7280168533325195,5.3934221267700195,88.27122497558594,0.5962039828300476,-0.06597299873828888,1.1582000255584717,36.647735595703125,66.85848999023438,51.40284729003906,36.868377685546875,-1.9033699035644531,-0.2105712890625,0.963545560836792,-0.1646435707807541,-0.21088358759880066,0.21044372022151947,0.9531263709068298,0.21740034222602844,0.16520513594150543,-0.25385427474975586,0.9530295133590698,0.0
1423390,0,3611,97.56800079345703,-3.7519450187683105,4.484148979187012,87.51509094238281,0.6108649969100952,-0.053755998611450195,1.1484260559082031,37.13436508178711,66.49272918701172,48.59772491455078,38.91737365722656,-1.7690582275390625,-0.756134033203125,0.9614575505256653,-0.17694556713104248,-0.21044956147670746,0.22147873044013977,0.9519675970077515,0.21143361926078796,0.16292893886566162,-0.24989457428455353,0.9544667601585388,0.0
1423400,0,3611,97.56300354003906,-3.9146571159362793,3.723231077194214,88.27600860595703,0.6181949973106384,-0.03420799970626831,1.1508690118789673,37.61205291748047,66.07437896728516,47.17925262451172,41.096744537353516,-1.8183860778808594,0.7609100341796875,0.9592657685279846,-0.18925845623016357,-0.20973771810531616,0.2324783205986023,0.9506559371948242,0.20544211566448212,0.16050675511360168,-0.24583305418491364,0.9559308290481567,0.0
1423410,0,3612,97.55699920654297,-3.1680970191955566,1.8855440616607666,87.4720230102539,0.6035339832305908,-0.026877999305725098,1.1582000255584717,38.090354919433594,65.66506958007812,44.32548522949219,43.146549224853516,-1.7716751098632812,-0.8039779663085938,0.9569340348243713,-0.20158018171787262,-0.20890700817108154,0.24351383745670319,0.9491341710090637,0.19961124658584595,0.15804311633110046,-0.24188654124736786,0.95734703540802,0.0
1423420,0,3612,97.5510025024414,-3.115454912185669,2.0051848888397217,86.83074951171875,0.5913169980049133,-0.021990999579429626,1.145982027053833,38.569244384765625,65.25021362304688,41.68114471435547,45.14960861206055,-1.7254486083984375,-0.6412811279296875,0.9544969797134399,-0.21372684836387634,-0.20798009634017944,0.254403293132782,0.947457492351532,0.19391405582427979,0.155607670545578,-0.23800121247768402,0.9587188363075256,0.0
1423430,0,3611,97.53600311279297,-3.3116660118103027,0.8997009992599487,87.07959747314453,0.5400040149688721,-0.007329999934881926,1.1484260559082031,39.13002395629883,65.21975708007812,40.858177185058594,46.221412658691406,-0.8993377685546875,0.24884796142578125,0.9519473314285278,-0.22575607895851135,-0.20695379376411438,0.26526549458503723,0.9455198645591736,0.18874789774417877,0.1530679613351822,-0.2345757782459259,0.9599711298942566,0.0
1423440,0,3611,97.52300262451172,-3.5557339191436768,1.1389830112457275,86.84510040283203,0.5204570293426514,0.0024429999757558107,1.1557559967041016,39.74956512451172,65.46288299560547,40.24273681640625,46.60236358642578,-0.3326988220214844,-0.23448944091796875,0.949263334274292,-0.23777884244918823,-0.20581436157226562,0.276154488325119,0.9433741569519043,0.18380200862884521,0.1504557728767395,-0.231313094496727,0.9611750841140747,0.0
1423450,0,3612,97.52999877929688,-3.627519130706787,1.263409972190857,87.12267303466797,0.4935790002346039,0.00977300014346838,1.163087010383606,40.243316650390625,65.08869171142578,38.666595458984375,48.45607376098633,-1.5615997314453125,0.2775726318359375,0.9464383721351624,-0.24977809190750122,-0.20460812747478485,0.28707292675971985,0.941008448600769,0.17914097011089325,0.14779254794120789,-0.2282833606004715,0.9623119831085205,0.0
1423460,0,3612,97.51100158691406,-3.8285160064697266,-0.06699900329113007,86.7541732788086,0.4666999876499176,0.024434000253677368,1.1606429815292358,40.853981018066406,65.27436828613281,37.83935546875,48.914833068847656,-0.4041328430175781,-0.36849212646484375,0.9435112476348877,-0.26165980100631714,-0.2032730132341385,0.29791393876075745,0.9384540319442749,0.17478758096694946,0.1450275331735611,-0.22547192871570587,0.9633948802947998,0.0
1423470,0,3612,97.50499725341797,-4.555933952331543,0.2057819962501526,86.62017822265625,0.43004900217056274,0.03665100038051605,1.163087010383606,41.456851959228516,65.40594482421875,37.126800537109375,49.493370056152344,-0.4962882995605469,-0.13401031494140625,0.9404652118682861,-0.2734493613243103,-0.20186594128608704,0.30872657895088196,0.9356841444969177,0.17082874476909637,0.142169788479805,-0.22297990322113037,0.9644002914428711,0.0
1423480,0,3611,97.49600219726562,-4.680360794067383,0.3014949858188629,86.83553314208984,0.3933970034122467,0.06108599901199341,1.1753039360046387,42.08031463623047,65.62246704101562,36.965171813964844,49.870365142822266,-0.31116485595703125,0.215362548828125,0.9372972249984741,-0.28523746132850647,-0.20028185844421387,0.319579541683197,0.9326722025871277,0.16730444133281708,0.1390758752822876,-0.22081999480724335,0.965347945690155,0.0
1423490,0,3611,97.48400115966797,-4.326222896575928,0.9044860005378723,86.09854125976562,0.3640750050544739,0.08552099764347076,1.1826339960098267,42.751983642578125,66.05691528320312,36.416839599609375,49.68170166015625,0.1302947998046875,-0.73699951171875,0.9340178966522217,-0.2969913184642792,-0.19850972294807434,0.3304254412651062,0.9294477105140686,0.1641504466533661,0.13575316965579987,-0.21891213953495026,0.9662550091743469,0.0
1423500,0,3611,97.48899841308594,-4.53200626373291,0.9284150004386902,86.15118408203125,0.31520599126815796,0.13194599747657776,1.1948519945144653,43.31107711791992,65.92858123779297,35.29981994628906,50.85136413574219,-0.9902992248535156,0.052642822265625,0.9306533932685852,-0.30871638655662537,-0.19641238451004028,0.34127169847488403,0.92596435546875,0.16162621974945068,0.1319742202758789,-0.21744798123836517,0.9671087861061096,0.0
1423510,0,3611,97.4739990234375,-4.024726867675781,0.35413700342178345,86.0458984375,0.2785539925098419,0.15149399638175964,1.1997389793395996,43.94978332519531,66.1750259399414,34.94703674316406,51.09886932373047,-0.21425628662109375,-0.10528564453125,0.9271699786186218,-0.3203677237033844,-0.19421596825122833,0.35209184885025024,0.9222689867019653,0.1595330536365509,0.12801013886928558,-0.21629612147808075,0.9678996205329895,0.0
1423520,0,3611,97.46600341796875,-3.6466610431671143,-0.401993989944458,85.81619262695312,0.2565630078315735,0.17104199528694153,1.1948519945144653,44.59827423095703,66.45294189453125,34.558685302734375,51.25751495361328,-0.143890380859375,-0.22971343994140625,0.9235984683036804,-0.3318828344345093,-0.19188295304775238,0.36279362440109253,0.9184221029281616,0.15773795545101166,0.12387905269861221,-0.21530045568943024,0.9686588644981384,0.0
1423530,0,3612,97.447998046875,-4.364508152008057,0.062212999910116196,85.87361907958984,0.22724099457263947,0.19058899581432343,1.189965009689331,45.34853744506836,67.19905090332031,35.56255340576172,50.311065673828125,0.8053550720214844,0.0574188232421875,0.9199406504631042,-0.34324783086776733,-0.1894451081752777,0.3733757734298706,0.9144162535667419,0.1563108116388321,0.11957836896181107,-0.21453088521957397,0.9693697690963745,0.0
1423540,0,3612,97.44400024414062,-3.3738789558410645,-0.799202024936676,85.70611572265625,0.18814599514007568,0.21258099377155304,1.1948519945144653,46.06437683105469,67.75527954101562,35.87841796875,49.827693939208984,0.4033546447753906,-0.16750335693359375,0.9161684513092041,-0.354534387588501,-0.1869226098060608,0.38392168283462524,0.9102029800415039,0.15535208582878113,0.11505988985300064,-0.21409232914447784,0.9700133204460144,0.0
1423550,0,3611,97.43699645996094,-4.29750919342041,-0.6508470177650452,85.59126281738281,0.15638099610805511,0.2370149940252304,1.189965009689331,46.775474548339844,68.26545715332031,36.1278076171875,49.46345520019531,0.30440521240234375,-0.1148529052734375,0.9123204946517944,-0.36566707491874695,-0.18427762389183044,0.3943357765674591,0.9058333039283752,0.1548062562942505,0.11031728237867355,-0.21390019357204437,0.9706065058708191,0.0
1423560,0,3612,97.43399810791016,-3.536591053009033,-0.8853440284729004,85.70611572265625,0.1148419976234436,0.28099700808525085,1.1826339960098267,47.444801330566406,68.5545654296875,36.06614685058594,49.63996124267578,-0.14511871337890625,0.1148529052734375,0.908443033695221,-0.37660688161849976,-0.18137779831886292,0.404563307762146,0.9013057947158813,0.15484192967414856,0.10516233742237091,-0.21404388546943665,0.9711468815803528,0.0
1423570,0,3611,97.4219970703125,-3.1824541091918945,-1.038485050201416,85.59126281738281,0.04398199915885925,0.2956579923629761,1.1801910400390625,48.15822982788086,69.03955841064453,36.25140380859375,49.33985900878906,0.24998855590820312,-0.11484527587890625,0.9044658541679382,-0.3873474597930908,-0.1786138266324997,0.41469040513038635,0.8965588808059692,0.15560764074325562,0.09986360371112823,-0.21481125056743622,0.9715366959571838,0.0
1423580,0,3612,97.40799713134766,-2.1296119689941406,-1.2011959552764893,85.60562133789062,0.0024429999757558107,0.305431991815567,1.1777470111846924,48.93144989013672,69.78831481933594,37.18041229248047,48.42520523071289,0.7766380310058594,0.0143585205078125,0.9003822803497314,-0.3979436755180359,-0.17593148350715637,0.42472073435783386,0.8916391730308533,0.1568167805671692,0.09446316212415695,-0.21591678261756897,0.9718316793441772,0.0
1423590,0,3611,97.39800262451172,-2.761317014694214,-0.8470590114593506,86.09854125976562,-0.03176400065422058,0.31520599126815796,1.1753039360046387,49.7235107421875,70.60028839111328,38.69300079345703,47.40553665161133,0.8850746154785156,0.492919921875,0.8961942791938782,-0.40840962529182434,-0.17331108450889587,0.4346511662006378,0.8865590691566467,0.1584017276763916,0.08895773440599442,-0.21728858351707458,0.9720454216003418,0.0
1423600,0,3611,97.4010009765625,-2.2636098861694336,-1.316051959991455,85.43812561035156,-0.07330299913883209,0.32253599166870117,1.1704169511795044,50.412471771240234,70.89675903320312,37.84965515136719,47.58848571777344,-0.18190383911132812,-0.6604156494140625,0.891909658908844,-0.4187116026878357,-0.17081306874752045,0.44446074962615967,0.8813180327415466,0.1604146659374237,0.08337318152189255,-0.2189950942993164,0.9721574783325195,0.0
1423610,0,3611,97.39399719238281,-2.268394947052002,-0.7274180054664612,85.0792007446289,-0.10751199722290039,0.32986700534820557,1.163087010383606,51.09711837768555,71.1502685546875,37.21159362792969,47.86760330200195,-0.2513236999511719,-0.35894012451171875,0.8875417113304138,-0.42884165048599243,-0.16841571033000946,0.4541252851486206,0.8759395480155945,0.16278773546218872,0.07771184295415878,-0.2209627330303192,0.9721813201904297,0.0
1423620,0,3611,97.37699890136719,-2.1391830444335938,-0.6460620164871216,85.15098571777344,-0.13927699625492096,0.33475399017333984,1.1655299663543701,51.87027359008789,71.80746459960938,37.95555114746094,47.1954345703125,0.5732154846191406,0.0717926025390625,0.8830469846725464,-0.43889132142066956,-0.16613781452178955,0.46373167634010315,0.8703833222389221,0.16548562049865723,0.07197342067956924,-0.22317492961883545,0.9721177220344543,0.0
1423630,0,3612,97.37000274658203,-1.8903290033340454,-0.8135589957237244,84.97391510009766,-0.2101369947195053,0.351857990026474,1.1582000255584717,52.63363265991211,72.39388275146484,38.27714538574219,46.69676971435547,0.4159507751464844,-0.17707061767578125,0.8784905672073364,-0.4487098753452301,-0.16405218839645386,0.47317028045654297,0.8646281957626343,0.1689014881849289,0.06605641543865204,-0.22600296139717102,0.9718844294548035,0.0
1423640,0,3612,97.35099792480469,-0.8662009835243225,-0.08614099770784378,85.03134155273438,-0.2370149940252304,0.35430100560188293,1.1582000255584717,53.498870849609375,73.44120788574219,39.90674591064453,45.124603271484375,1.3362541198730469,0.05742645263671875,0.8738184571266174,-0.458435595035553,-0.16210328042507172,0.4825252294540405,0.858711302280426,0.1725805699825287,0.06008287891745567,-0.2290230095386505,0.9715650677680969,0.0
1423650,0,3612,97.35700225830078,-0.5407770276069641,-0.02871299907565117,84.8303451538086,-0.27366700768470764,0.35674500465393066,1.145982027053833,54.227664947509766,73.80398559570312,39.62928771972656,45.201053619384766,-0.07298660278320312,-0.2010040283203125,0.8690894842147827,-0.4679458737373352,-0.16034173965454102,0.4916890859603882,0.8526739478111267,0.17660300433635712,0.054078616201877594,-0.232322096824646,0.9711344838142395,0.0
1423660,0,3612,97.33100128173828,0.17228299379348755,-0.11964099854230881,84.60542297363281,-0.2981019914150238,0.351857990026474,1.1484260559082031,55.124839782714844,74.9495620727539,41.190773010253906,43.41465377807617,1.5066184997558594,-0.22491455078125,0.864227294921875,-0.4773881137371063,-0.1587805151939392,0.5007982850074768,0.8464653491973877,0.18082378804683685,0.04807910695672035,-0.23578986525535583,0.9706141352653503,0.0
1423670,0,3611,97.3219985961914,2.344965934753418,0.17228299379348755,84.79684448242188,-0.32742300629615784,0.33475399017333984,1.145982027053833,56.022247314453125,76.056884765625,43.021087646484375,41.77574920654297,1.3982925415039062,0.1914215087890625,0.8592376112937927,-0.48671069741249084,-0.15755273401737213,0.5098314881324768,0.8400988578796387,0.18521776795387268,0.042212434113025665,-0.239471435546875,0.9699854254722595,0.0
1423680,0,3612,97.31099700927734,2.536391019821167,0.24885299801826477,84.16035461425781,-0.3591879904270172,0.31276199221611023,1.1288779973983765,56.93806457519531,77.217041015625,44.14479064941406,40.01557922363281,1.4677467346191406,-0.6364822387695312,0.8541890382766724,-0.49578288197517395,-0.1567157506942749,0.5186750888824463,0.8336440324783325,0.1897726207971573,0.036559149622917175,-0.24338623881340027,0.9692403078079224,0.0
1423690,0,3612,97.30899810791016,2.7517449855804443,0.9140580296516418,84.18428039550781,-0.3738490045070648,0.27611100673675537,1.1215479373931885,57.787353515625,78.015625,45.013938903808594,39.17034149169922,0.7181282043457031,0.0239105224609375,0.8490166664123535,-0.5047144293785095,-0.15631194412708282,0.5274412631988525,0.8270842432975769,0.1942608803510666,0.031236886978149414,-0.24737609922885895,0.9684159755706787,0.0
1423700,0,3612,97.29000091552734,4.005585193634033,1.2107679843902588,83.85407257080078,-0.4251619875431061,0.20524999499320984,1.1166609525680542,58.731475830078125,79.23680114746094,46.526695251464844,37.32737731933594,1.5503578186035156,-0.33020782470703125,0.8436596393585205,-0.5134652853012085,-0.15681609511375427,0.536220133304596,0.820334792137146,0.19879351556301117,0.026568114757537842,-0.251801997423172,0.967414140701294,0.0
1423710,0,3611,97.27899932861328,4.474577903747559,1.5457630157470703,83.80142974853516,-0.44470900297164917,0.15882399678230286,1.094670057296753,59.69016647338867,80.48394775390625,48.32954406738281,35.471893310546875,1.5721855163574219,-0.052642822265625,0.8382490873336792,-0.5219372510910034,-0.15785889327526093,0.5448285341262817,0.8135492205619812,0.20322319865226746,0.022356197237968445,-0.25635766983032227,0.9663234949111938,0.0
1423720,0,3611,97.26699829101562,3.9146571159362793,2.976670980453491,83.93064880371094,-0.45692700147628784,0.10995499789714813,1.0824520587921143,60.671409606933594,81.79679870605469,50.418540954589844,33.51210021972656,1.6680450439453125,0.12921142578125,0.8327358365058899,-0.530222475528717,-0.15941958129405975,0.5533574819564819,0.8066928386688232,0.2074660211801529,0.01859946921467781,-0.26098039746284485,0.9651649594306946,0.0
1423730,0,3612,97.26599884033203,3.95294189453125,2.4311070442199707,83.30372619628906,-0.474031001329422,0.06108599901199341,1.072679042816162,61.57144546508789,82.68025970458984,50.720314025878906,32.58342742919922,0.7626190185546875,-0.6269149780273438,0.8271098732948303,-0.5383307337760925,-0.16152016818523407,0.5618317127227783,0.7997444868087769,0.21155080199241638,0.015290572308003902,-0.2657229006290436,0.96392822265625,0.0
1423740,0,3612,97.24800109863281,4.460220813751221,3.6562318801879883,83.46165466308594,-0.4789179861545563,0.021990999579429626,1.0604610443115234,62.55247116088867,83.91068267822266,52.58464813232422,30.87700653076172,1.4542274475097656,0.1579132080078125,0.8214020133018494,-0.5462588667869568,-0.16401033103466034,0.5702155828475952,0.7927461266517639,0.2154245674610138,0.012340978719294071,-0.2704714238643646,0.9626489281654358,0.0
1423750,0,3611,97.25900268554688,3.5557339191436768,4.809573173522949,83.20801544189453,-0.47647398710250854,-0.026877999305725098,1.045801043510437,63.34025955200195,84.1792984008789,51.733489990234375,31.474525451660156,-0.5172233581542969,-0.25363922119140625,0.8156115412712097,-0.5539973974227905,-0.16692519187927246,0.5785154700279236,0.785731315612793,0.21896587312221527,0.009851810522377491,-0.27515989542007446,0.9613479971885681,0.0
1423760,0,3611,97.2509994506836,3.3547370433807373,4.048655033111572,83.55258178710938,-0.47158700227737427,-0.11239899694919586,1.028696060180664,64.1224365234375,84.40005493164062,51.358795166015625,32.19379425048828,-0.5963516235351562,0.34456634521484375,0.8096914887428284,-0.5615286827087402,-0.1705419421195984,0.5867982506752014,0.7787251472473145,0.22193430364131927,0.008182786405086517,-0.27977198362350464,0.9600316286087036,0.0
1423770,0,3612,97.23300170898438,3.393022060394287,4.962714195251465,82.85865783691406,-0.47158700227737427,-0.15149399638175964,1.018923044204712,64.99195861816406,85.0230484008789,50.95719909667969,31.901473999023438,0.2199859619140625,-0.6939315795898438,0.8036782145500183,-0.5689022541046143,-0.17450183629989624,0.595024049282074,0.7716788649559021,0.22462858259677887,0.006867653224617243,-0.2843618392944336,0.9586924910545349,0.0
1423780,0,3611,97.23100280761719,3.10109806060791,5.446063995361328,82.38009643554688,-0.46425700187683105,-0.19058899581432343,1.018923044204712,65.79489135742188,85.29497528076172,49.938232421875,32.44187927246094,-0.47785186767578125,-0.47857666015625,0.7975148558616638,-0.57620769739151,-0.1787574589252472,0.6032702326774597,0.7645537257194519,0.22698569297790527,0.0058787791058421135,-0.28886348009109497,0.9573522806167603,0.0
1423790,0,3611,97.21700286865234,2.4550349712371826,5.603990077972412,82.14081573486328,-0.4544830024242401,-0.21991099417209625,1.018923044204712,66.64632415771484,85.77521514892578,49.66496276855469,32.475852966308594,-0.03849029541015625,-0.23929595947265625,0.7912158966064453,-0.5834473967552185,-0.18321053683757782,0.6115150451660156,0.7573569416999817,0.22904065251350403,0.005122627131640911,-0.293256551027298,0.9560200572013855,0.0
1423800,0,3611,97.21299743652344,2.0913259983062744,5.958127975463867,81.9876708984375,-0.427605003118515,-0.25411900877952576,1.0164790153503418,67.4503402709961,86.00382995605469,48.883880615234375,33.103782653808594,-0.5389633178710938,-0.15314483642578125,0.7847842574119568,-0.5906326174736023,-0.18779346346855164,0.6197511553764343,0.7501451373100281,0.23063082993030548,0.004654316231608391,-0.29738059639930725,0.9547476172447205,0.0
1423810,0,3612,97.20700073242188,1.7802600860595703,5.398207187652588,81.85367584228516,-0.43004900217056274,-0.2834410071372986,1.014035940170288,68.2281494140625,86.08894348144531,47.799522399902344,34.054161071777344,-0.8117828369140625,-0.1339874267578125,0.7782267332077026,-0.5977082252502441,-0.19263336062431335,0.627967357635498,0.7428532838821411,0.23200368881225586,0.004427862353622913,-0.30151885747909546,0.9534499049186707,0.0
1423820,0,3611,97.17500305175781,0.9092720150947571,7.030111789703369,81.65746307373047,-0.40805700421333313,-0.30054500699043274,1.0238089561462402,69.22235870361328,87.19120788574219,49.09208679199219,32.56537628173828,1.2552566528320312,-0.19622039794921875,0.7714912295341492,-0.6048145890235901,-0.19748447835445404,0.6362250447273254,0.7354624271392822,0.23305021226406097,0.004290292970836163,-0.3054406940937042,0.9522013664245605,0.0
1423830,0,3611,97.17400360107422,0.8566300272941589,7.685746192932129,81.71488952636719,-0.3714050054550171,-0.34208399057388306,1.018923044204712,70.13206481933594,87.85063171386719,49.546104431152344,32.16876983642578,0.3388214111328125,0.05742645263671875,0.7646150588989258,-0.611867368221283,-0.20243936777114868,0.6444710493087769,0.7281012535095215,0.2335069328546524,0.004521139897406101,-0.3090091645717621,0.9510481953620911,0.0
1423840,0,3611,97.16799926757812,0.31585198640823364,8.73380184173584,81.56175231933594,-0.3323099911212921,-0.3591879904270172,1.0311399698257446,71.00847625732422,88.32426452636719,49.34855651855469,32.21319580078125,-0.04387664794921875,-0.1531219482421875,0.7575393915176392,-0.6190043091773987,-0.2072855532169342,0.6527711153030396,0.72066730260849,0.2335129976272583,0.004838418681174517,-0.3122052550315857,0.9500022530555725,0.0
1423850,0,3611,97.15499877929688,0.31106600165367126,9.375078201293945,80.98747253417969,-0.30054500699043274,-0.38362300395965576,1.0482439994812012,71.91827392578125,88.93258666992188,49.07377624511719,31.9136962890625,0.2309112548828125,-0.57427978515625,0.7502142786979675,-0.6262468695640564,-0.21211542189121246,0.6611731648445129,0.7131100296974182,0.23307518661022186,0.005299097392708063,-0.3151012659072876,0.9490431547164917,0.0
1423860,0,3611,97.15299987792969,-0.4402790069580078,9.537790298461914,80.92526245117188,-0.25900599360466003,-0.3860659897327423,1.043357014656067,72.75716400146484,89.17112731933594,48.416839599609375,32.50841522216797,-0.507110595703125,-0.0622100830078125,0.7428208589553833,-0.6334511041641235,-0.21669456362724304,0.6694650650024414,0.7055966258049011,0.23227106034755707,0.005766686052083969,-0.3176051378250122,0.9482054710388184,0.0
1423870,0,3612,97.13099670410156,-0.6460620164871216,9.801000595092773,80.82476043701172,-0.20769399404525757,-0.3933970034122467,1.0555739402770996,73.71472930908203,89.95773315429688,49.037879943847656,31.786888122558594,0.6081390380859375,-0.100494384765625,0.7352405190467834,-0.6407685875892639,-0.22099006175994873,0.6777772307395935,0.698036253452301,0.23100511729717255,0.006238323170691729,-0.31962624192237854,0.9475231170654297,0.0
1423880,0,3612,97.12899780273438,-1.3351950645446777,9.494720458984375,80.69554901123047,-0.17348499596118927,-0.40805700421333313,1.070235013961792,74.59803771972656,90.35887145996094,48.703338623046875,31.992210388183594,-0.17943572998046875,-0.12921905517578125,0.7274385094642639,-0.6481800079345703,-0.2251565158367157,0.6861389875411987,0.6903699636459351,0.22935236990451813,0.006779718678444624,-0.3213283121585846,0.9469435811042786,0.0
1423890,0,3611,97.13300323486328,-2.0721840858459473,9.997212409973145,80.93482971191406,-0.1270589977502823,-0.40805700421333313,1.089782953262329,75.35568237304688,90.13846588134766,47.25469970703125,33.680137634277344,-1.4224853515625,0.23928070068359375,0.7194125056266785,-0.6557470560073853,-0.22900012135505676,0.6945449709892273,0.682588517665863,0.22733257710933685,0.007240230683237314,-0.3225966691970825,0.9465087652206421,0.0
1423900,0,3611,97.10700225830078,-2.8043880462646484,9.31765079498291,80.80561828613281,-0.04153800010681152,-0.390953004360199,1.1288779973983765,76.27342987060547,90.677734375,47.289764404296875,33.51586151123047,0.1341552734375,-0.12921905517578125,0.7110691666603088,-0.6636977195739746,-0.23213274776935577,0.7030826807022095,0.6746380925178528,0.22480665147304535,0.00740200188010931,-0.3230615258216858,0.9463489651679993,0.0
1423910,0,3612,97.10700225830078,-3.541377067565918,9.092724800109863,80.70511627197266,0.0048859999515116215,-0.3787359893321991,1.1557559967041016,77.10028076171875,90.75825500488281,46.26414489746094,34.44097137451172,-0.7889862060546875,-0.1005096435546875,0.7024726271629333,-0.6718502640724182,-0.2348383367061615,0.711672306060791,0.6665060520172119,0.2220182716846466,0.0073582082986831665,-0.3230896592140198,0.9463397264480591,0.0
1423920,0,3612,97.0999984741211,-4.077369213104248,8.743372917175293,80.07820129394531,0.03909499943256378,-0.36896198987960815,1.1704169511795044,77.90648651123047,90.72648620605469,44.49542236328125,35.582786560058594,-0.9941253662109375,-0.6269149780273438,0.6936958432197571,-0.680086076259613,-0.237210214138031,0.7202319502830505,0.6582455635070801,0.21904045343399048,0.007176287472248077,-0.32279375195503235,0.9464420676231384,0.0
1423930,0,3611,97.0780029296875,-4.53200626373291,8.059025764465332,79.68577575683594,0.07330299913883209,-0.351857990026474,1.1777470111846924,78.83231353759766,91.24929809570312,44.30619812011719,35.37957763671875,0.15655517578125,-0.39243316650390625,0.6848052144050598,-0.6883517503738403,-0.2391933798789978,0.7286940217018127,0.6499059200286865,0.2159339040517807,0.006814783439040184,-0.3221713602542877,0.9466568231582642,0.0
1423940,0,3612,97.06900024414062,-4.828715801239014,7.800601005554199,80.05427551269531,0.10995499789714813,-0.3249799907207489,1.189965009689331,79.74971771240234,91.70524597167969,44.68766784667969,35.366600036621094,0.02590179443359375,0.368499755859375,0.6757907271385193,-0.696684718132019,-0.24070130288600922,0.737067461013794,0.6414541602134705,0.2127634882926941,0.006169854197651148,-0.32119661569595337,0.9469924569129944,0.0
1423950,0,3611,97.06300354003906,-5.1349968910217285,7.207180976867676,79.66663360595703,0.13683299720287323,-0.30298900604248047,1.2070690393447876,80.63117980957031,91.97175598144531,43.89105224609375,35.77558135986328,-0.3626708984375,-0.38763427734375,0.6666057705879211,-0.7050908803939819,-0.24183347821235657,0.7453915476799011,0.6328297853469849,0.2095663696527481,0.0052761803381145,-0.31995871663093567,0.9474168419837952,0.0
1423960,0,3612,97.0469970703125,-5.07278299331665,6.910470962524414,79.1067123413086,0.16615499556064606,-0.2565630078315735,1.2290599346160889,81.57145690917969,92.49824523925781,43.565338134765625,35.54137420654297,0.17609405517578125,-0.5599212646484375,0.6572727560997009,-0.7136034369468689,-0.24240972101688385,0.7536424994468689,0.6239976286888123,0.20651906728744507,0.0038904529064893723,-0.3184295892715454,0.9479385614395142,0.0
1423970,0,3611,97.03099822998047,-5.441277980804443,6.302693843841553,78.48936462402344,0.16371099650859833,-0.22479799389839172,1.2266169786453247,82.56676483154297,93.25883483886719,43.74745178222656,34.741920471191406,0.6533584594726562,-0.6173477172851562,0.6479296684265137,-0.7219804525375366,-0.24275721609592438,0.7616966366767883,0.6150742173194885,0.20372073352336884,0.002231377176940441,-0.3169040083885193,0.9484550356864929,0.0
1423980,0,3611,97.02300262451172,-5.699703216552734,6.967898845672607,78.54679107666016,0.19791999459266663,-0.2028069943189621,1.2412769794464111,83.5392837524414,93.87622833251953,44.228515625,34.318267822265625,0.3617706298828125,0.0574188232421875,0.6384303569793701,-0.7304198741912842,-0.24267886579036713,0.7696791887283325,0.606005072593689,0.20087794959545135,0.0003394470550119877,-0.31503140926361084,0.9490812420845032,0.0
1423990,0,3611,97.00700378417969,-4.9770708084106445,6.3553361892700195,78.25965881347656,0.1954759955406189,-0.16615499556064606,1.2608250379562378,84.56431579589844,94.71929931640625,44.90486145019531,33.35479736328125,0.805877685546875,-0.2871246337890625,0.6287723779678345,-0.7388583421707153,-0.24234910309314728,0.7775866389274597,0.5966761708259583,0.19833482801914215,-0.001937347580678761,-0.31315484642982483,0.9497001767158508,0.0
1424000,0,3612,97.0,-4.95792818069458,5.551347732543945,77.99644470214844,0.21746699512004852,-0.14660699665546417,1.2754859924316406,85.55493927001953,95.36473083496094,45.11958312988281,32.876853942871094,0.3948822021484375,-0.263214111328125,0.6189475059509277,-0.7473181486129761,-0.2417002022266388,0.7854195833206177,0.5871722102165222,0.1958189755678177,-0.004419378936290741,-0.31103771924972534,0.9503873586654663,0.0
1424010,0,3611,96.98899841308594,-4.785645008087158,5.469992160797119,78.23572540283203,0.21502399444580078,-0.1343899965286255,1.2852599620819092,86.55006408691406,96.0029296875,45.79066467285156,32.44506072998047,0.37602996826171875,0.239288330078125,0.6089726686477661,-0.7557047009468079,-0.2409607619047165,0.7931598424911499,0.5774819850921631,0.1934225708246231,-0.007019808050245047,-0.30890941619873047,0.9510655999183655,0.0
1424020,0,3611,96.97200012207031,-4.9244279861450195,4.737788200378418,78.867431640625,0.21746699512004852,-0.11728599667549133,1.3048069477081299,87.60481262207031,96.90154266357422,47.436676025390625,31.43072509765625,0.8861465454101562,0.6317062377929688,0.5987842082977295,-0.7640842795372009,-0.24006682634353638,0.800849974155426,0.5675367712974548,0.19115860760211945,-0.009814505465328693,-0.30672022700309753,0.9517491459846497,0.0
1424030,0,3612,96.95999908447266,-5.61834716796875,4.216153144836426,77.4365234375,0.222353994846344,-0.07085999846458435,1.3390159606933594,88.66897583007812,97.81822967529297,47.1221923828125,30.31433868408203,0.889404296875,-1.430877685546875,0.5883359313011169,-0.7725420594215393,-0.23882825672626495,0.8085097670555115,0.5572212338447571,0.18925315141677856,-0.013125821948051453,-0.30443936586380005,0.9524413347244263,0.0
1424040,0,3611,96.94300079345703,-5.747559070587158,3.10109806060791,77.96772766113281,0.2028069943189621,-0.046424999833106995,1.3463460206985474,89.78803253173828,98.94988250732422,49.19322204589844,28.774505615234375,1.3279647827148438,0.5311965942382812,0.5777780413627625,-0.7808530926704407,-0.2375718355178833,0.816023588180542,0.546704113483429,0.1876712143421173,-0.01666213572025299,-0.3022964894771576,0.9530683755874634,0.0
1424050,0,3612,96.94400024414062,-5.288136959075928,2.7134599685668945,77.60401916503906,0.1832589954137802,-0.02932099997997284,1.356119990348816,90.79130554199219,99.49574279785156,48.97462463378906,28.62938690185547,0.10843658447265625,-0.36370849609375,0.5670740604400635,-0.7890284657478333,-0.23634815216064453,0.8234148025512695,0.5359672904014587,0.18635280430316925,-0.020362766459584236,-0.3002883791923523,0.9536311030387878,0.0
1424060,0,3611,96.93199920654297,-4.661218166351318,3.5605199337005615,78.1400146484375,0.175928995013237,0.0,1.358564019203186,91.80611419677734,100.06843566894531,49.681671142578125,28.458335876464844,0.1667938232421875,0.5360031127929688,0.5563107132911682,-0.7970528602600098,-0.23499879240989685,0.8306180238723755,0.5250958204269409,0.18533286452293396,-0.02432316169142723,-0.29829686880111694,0.9541631937026978,0.0
1424070,0,3611,96.92400360107422,-5.010570049285889,2.8761720657348633,78.69036102294922,0.16126799583435059,0.017103999853134155,1.3512330055236816,92.7944564819336,100.49451446533203,50.038177490234375,28.652191162109375,-0.14223480224609375,0.55035400390625,0.5455392003059387,-0.8048542737960815,-0.233657568693161,0.837603747844696,0.5141607522964478,0.18455037474632263,-0.02839856594800949,-0.29639190435409546,0.9546441435813904,0.0
1424080,0,3611,96.90499877929688,-4.4889349937438965,4.029512882232666,77.84809112548828,0.1417199969291687,0.051311999559402466,1.356119990348816,93.8597640991211,101.27075958251953,49.8897705078125,27.958335876464844,0.5546951293945312,-0.8422775268554688,0.53470379114151,-0.8124887943267822,-0.23227789998054504,0.8444028496742249,0.5030547380447388,0.18417340517044067,-0.032790277153253555,-0.29461434483528137,0.9550535082817078,0.0
1424090,0,3611,96.88800048828125,-2.890528917312622,3.670588970184326,76.85267639160156,0.13683299720287323,0.048868998885154724,1.3610069751739502,94.97857666015625,102.26364135742188,50.1124267578125,26.740249633789062,0.9932861328125,-0.9954299926757812,0.5237199664115906,-0.819988489151001,-0.23094479739665985,0.8510798215866089,0.4918067157268524,0.18381880223751068,-0.03714904934167862,-0.2928220331668854,0.9554450511932373,0.0
1424100,0,3611,96.875,-3.8476579189300537,2.928813934326172,76.46504211425781,0.12950299680233002,0.06352899968624115,1.3658939599990845,96.11017608642578,103.27235412597656,50.9461669921875,25.518875122070312,1.0206375122070312,-0.38763427734375,0.5126283168792725,-0.8273450136184692,-0.22959016263484955,0.8576001524925232,0.4804135859012604,0.18364328145980835,-0.04163806512951851,-0.29103732109069824,0.9558051824569702,0.0
1424110,0,3611,96.86299896240234,-4.460220813751221,2.90488600730896,76.38368225097656,0.10995499789714813,0.09285099804401398,1.3707809448242188,97.2441177368164,104.25227355957031,51.98362731933594,24.400070190429688,0.94598388671875,-0.08135986328125,0.5014634728431702,-0.8345282077789307,-0.2282457798719406,0.8639335036277771,0.46885496377944946,0.18383139371871948,-0.04639826714992523,-0.28937390446662903,0.9560909867286682,0.0
1424120,0,3611,96.85099792480469,-3.4360930919647217,2.3114659786224365,75.99125671386719,0.09529399871826172,0.10262499749660492,1.3781110048294067,98.37992095947266,105.20440673828125,52.63438415527344,23.35687255859375,0.8692626953125,-0.3924407958984375,0.490161269903183,-0.8415594696998596,-0.22697724401950836,0.8701234459877014,0.4571205675601959,0.18419025838375092,-0.05125105753540993,-0.28778114914894104,0.9563239216804504,0.0
1424130,0,3612,96.84200286865234,-4.029512882232666,2.5411770343780518,75.61319732666016,0.07085999846458435,0.10262499749660492,1.3854420185089111,99.4892807006836,105.9914779663086,52.89222717285156,22.720985412597656,0.524261474609375,-0.37805938720703125,0.4787006080150604,-0.8484134078025818,-0.22591903805732727,0.8761835098266602,0.4451933205127716,0.18467645347118378,-0.056104302406311035,-0.2863512635231018,0.9564807415008545,0.0
1424140,0,3611,96.8270034790039,-2.6656041145324707,3.407378911972046,75.31169891357422,0.04153800010681152,0.11972899734973907,1.4001020193099976,100.62914276123047,106.88894653320312,53.47850036621094,21.833206176757812,0.7410659790039062,-0.301513671875,0.4670591950416565,-0.8551103472709656,-0.22503556311130524,0.8821092247962952,0.4330005943775177,0.1854560226202011,-0.06114480644464493,-0.28512486815452576,0.956538200378418,0.0
1424150,0,3611,96.81800079345703,-2.4071788787841797,2.598604917526245,75.15855407714844,0.03176400065422058,0.12950299680233002,1.3976590633392334,101.74165344238281,107.61895751953125,53.795318603515625,21.363235473632812,0.3925628662109375,-0.1531524658203125,0.4553676247596741,-0.8616108298301697,-0.22420091927051544,0.8878345489501953,0.4207303524017334,0.1863754391670227,-0.06625494360923767,-0.28392264246940613,0.9565554857254028,0.0
1424160,0,3611,96.80599975585938,-1.4596209526062012,2.1870388984680176,74.7613525390625,0.0,0.12461599707603455,1.4049890041351318,102.8559799194336,108.32589721679688,53.81748962402344,20.943862915039062,0.33977508544921875,-0.3972015380859375,0.4435117542743683,-0.8679088950157166,-0.223674938082695,0.8934259414672852,0.40825697779655457,0.18739384412765503,-0.07132390886545181,-0.2829483151435852,0.9564796090126038,0.0
1424170,0,3612,96.7979965209961,-1.6606180667877197,2.885744094848633,74.47899627685547,0.0024429999757558107,0.1270589977502823,1.407433032989502,103.93460083007812,108.82911682128906,53.46574401855469,21.01325225830078,-0.07028961181640625,-0.28235626220703125,0.4315522611141205,-0.874056339263916,-0.22313058376312256,0.8988459706306458,0.3956891894340515,0.1884307861328125,-0.07640872895717621,-0.281877726316452,0.9564030170440674,0.0
1424180,0,3611,96.77999877929688,-1.3447660207748413,3.1298110485076904,74.3354263305664,-0.012217000126838684,0.11239899694919586,1.4147629737854004,105.0721664428711,109.58598327636719,53.8555908203125,20.479820251464844,0.4467926025390625,-0.1435699462890625,0.41941022872924805,-0.8800331354141235,-0.22279110550880432,0.9041434526443481,0.38295242190361023,0.1893993765115738,-0.08135928958654404,-0.2808711528778076,0.9562907814979553,0.0
1424190,0,3612,96.7699966430664,-1.0432699918746948,2.8761720657348633,74.22057342529297,-0.03665100038051605,0.11239899694919586,1.4123200178146362,106.19062042236328,110.21942901611328,53.97108459472656,20.249481201171875,0.19078826904296875,-0.114837646484375,0.40720686316490173,-0.8857737183570862,-0.22268050909042358,0.9092503786087036,0.3701179325580597,0.19046388566493988,-0.08628982305526733,-0.2800305485725403,0.9561050534248352,0.0
1424200,0,3611,96.75199890136719,-1.1964110136032104,3.369093894958496,74.93841552734375,-0.046424999833106995,0.08552099764347076,1.4196499586105347,107.36505889892578,111.09072875976562,55.4405517578125,19.49785614013672,0.6667327880859375,0.7178497314453125,0.3947988450527191,-0.891348659992218,-0.22277918457984924,0.914252519607544,0.3571264445781708,0.19131948053836823,-0.09097199887037277,-0.279209166765213,0.9559111595153809,0.0
1424210,0,3611,96.74099731445312,-0.526419997215271,3.187238931655884,74.42635345458984,-0.06597299873828888,0.0879639983177185,1.4147629737854004,108.52690887451172,111.8747787475586,55.49711608886719,18.929244995117188,0.46175384521484375,-0.512054443359375,0.38236290216445923,-0.8966851234436035,-0.22305501997470856,0.9190478324890137,0.34407249093055725,0.19226381182670593,-0.0956529900431633,-0.2785128057003021,0.9556573033332825,0.0
1424220,0,3612,96.7229995727539,-0.45463600754737854,4.000799179077148,73.90471649169922,-0.07330299913883209,0.0879639983177185,1.407433032989502,109.74153900146484,112.87362670898438,56.05226135253906,17.852462768554688,0.892547607421875,-0.5216445922851562,0.36991938948631287,-0.9018019437789917,-0.22340989112854004,0.9236333966255188,0.33100515604019165,0.193228080868721,-0.10030363500118256,-0.2778277099132538,0.955379843711853,0.0
1424230,0,3611,96.71399688720703,0.3014949858188629,4.106082916259766,73.86164855957031,-0.07818999886512756,0.03909499943256378,1.3903279304504395,110.92192077636719,113.66703796386719,56.56317138671875,17.298484802246094,0.468292236328125,-0.0430755615234375,0.35745152831077576,-0.9066705703735352,-0.22400003671646118,0.9280746579170227,0.3180229067802429,0.19374987483024597,-0.1044301763176918,-0.27714499831199646,0.9551359415054321,0.0
1424240,0,3612,96.69499969482422,-0.11964099854230881,3.062812089920044,73.45965576171875,-0.09040799736976624,0.026877999305725098,1.382997989654541,112.16255187988281,114.71479797363281,57.32292175292969,16.13671875,0.9694595336914062,-0.40200042724609375,0.3449572026729584,-0.911312460899353,-0.22475147247314453,0.9323365688323975,0.3050244152545929,0.19418737292289734,-0.10841067880392075,-0.276530385017395,0.9548705220222473,0.0
1424250,0,3611,96.67900085449219,0.21056799590587616,3.0101699829101562,73.52186584472656,-0.11972899734973907,0.019547000527381897,1.3805550336837769,113.43160247802734,115.85556030273438,58.72715759277344,14.794708251953125,1.1411666870117188,0.062225341796875,0.33240652084350586,-0.9157065749168396,-0.2258017659187317,0.9364255666732788,0.2919337749481201,0.19463294744491577,-0.11230749636888504,-0.2761438488960266,0.9545319676399231,0.0
1424260,0,3611,96.66100311279297,0.023927999660372734,4.426721096038818,73.38787078857422,-0.12461599707603455,0.012217000126838684,1.3756680488586426,114.74552917480469,117.16960144042969,60.32188415527344,13.065994262695312,1.4613494873046875,-0.13399505615234375,0.319825142621994,-0.9198994636535645,-0.22692714631557465,0.9403345584869385,0.27882400155067444,0.1950085461139679,-0.1161155104637146,-0.2757560908794403,0.9541884064674377,0.0
1424270,0,3611,96.65699768066406,-0.5934200286865234,4.776072978973389,73.24908447265625,-0.11972899734973907,-0.007329999934881926,1.3781110048294067,115.97135162353516,118.0165023803711,60.767181396484375,12.481918334960938,0.4899749755859375,-0.1387939453125,0.30712035298347473,-0.9239363670349121,-0.22807414829730988,0.9441080689430237,0.2656477391719818,0.19517052173614502,-0.11973775178194046,-0.27526748180389404,0.9538818001747131,0.0
1424280,0,3611,96.6449966430664,-0.2249249964952469,4.6468610763549805,73.19644165039062,-0.1221729964017868,-0.02932099997997284,1.3805550336837769,117.18821716308594,118.78468322753906,61.09742736816406,12.099014282226562,0.3227386474609375,-0.0526580810546875,0.29428815841674805,-0.9277982115745544,-0.22931240499019623,0.9477492570877075,0.25239256024360657,0.19511449337005615,-0.12315011024475098,-0.27475056052207947,0.9535963535308838,0.0
1424290,0,3611,96.62899780273438,-0.2632099986076355,4.627717971801758,72.73223876953125,-0.11972899734973907,-0.06108599901199341,1.363450050354004,118.43345642089844,119.65476989746094,61.26939392089844,11.462844848632812,0.5210037231445312,-0.464202880859375,0.2814898192882538,-0.9314384460449219,-0.2306189239025116,0.9512285590171814,0.2392558455467224,0.19473348557949066,-0.12620531022548676,-0.2741868197917938,0.9533591270446777,0.0
1424300,0,3611,96.61499786376953,-0.02871299907565117,4.876572132110596,71.84689331054688,-0.1221729964017868,-0.053755998611450195,1.348789930343628,119.68647766113281,120.52210235595703,61.02967834472656,10.817230224609375,0.5120086669921875,-0.885345458984375,0.26879632472991943,-0.9348579049110413,-0.23192323744297028,0.954481303691864,0.22620874643325806,0.19441010057926178,-0.12928274273872375,-0.27362313866615295,0.9531086683273315,0.0
1424310,0,3611,96.59400177001953,-0.894914984703064,4.637290000915527,71.35875701904297,-0.1343899965286255,-0.06597299873828888,1.3463460206985474,121.01134490966797,121.68829345703125,61.88214111328125,9.476608276367188,1.1177597045898438,-0.48815155029296875,0.25605183839797974,-0.9380698204040527,-0.23336994647979736,0.9575764536857605,0.2131190448999405,0.1939789056777954,-0.13223017752170563,-0.27313825488090515,0.9528433084487915,0.0
1424320,0,3611,96.59700012207031,-0.6843469738960266,5.053640842437744,70.59305572509766,-0.12950299680233002,-0.08552099764347076,1.3439030647277832,122.18067932128906,122.0656509399414,60.5806884765625,10.012374877929688,-0.48553466796875,-0.7656936645507812,0.24324147403240204,-0.9411137104034424,-0.23481404781341553,0.9605282545089722,0.2000223845243454,0.19333042204380035,-0.13497784733772278,-0.27257153391838074,0.9526203274726868,0.0
1424330,0,3611,96.57099914550781,-1.7802600860595703,5.077569007873535,69.31050109863281,-0.12950299680233002,-0.08307699859142303,1.3390159606933594,123.47252655029297,122.99642944335938,60.12934875488281,9.181182861328125,0.6534347534179688,-1.282562255859375,0.23044203221797943,-0.9439725875854492,-0.23624394834041595,0.9632899165153503,0.18693529069423676,0.19268590211868286,-0.13772788643836975,-0.2719743549823761,0.952397346496582,0.0
1424340,0,3611,96.55699920654297,-0.4642069935798645,5.192424774169922,67.31967163085938,-0.1221729964017868,-0.0879639983177185,1.3463460206985474,124.7677993774414,123.89476013183594,58.937255859375,8.3824462890625,0.5972671508789062,-1.9908599853515625,0.21752318739891052,-0.9466918110847473,-0.23760715126991272,0.9658982753753662,0.17375662922859192,0.19196167588233948,-0.14044274389743805,-0.27126047015190125,0.9522044658660889,0.0
1424350,0,3611,96.5510025024414,-1.5361919403076172,6.16869592666626,65.55376434326172,-0.12461599707603455,-0.09285099804401398,1.3536770343780518,125.99159240722656,124.39784240722656,57.050933837890625,8.50286865234375,-0.1735076904296875,-1.7659378051757812,0.20448648929595947,-0.9492449164390564,-0.23899433016777039,0.9683498740196228,0.16046936810016632,0.19117577373981476,-0.1431213766336441,-0.2705230414867401,0.9520153999328613,0.0
1424360,0,3611,96.54100036621094,-1.3686940670013428,6.6233320236206055,62.69673538208008,-0.0879639983177185,-0.10262499749660492,1.3658939599990845,127.1849365234375,124.71330261230469,53.72550964355469,8.97125244140625,-0.5128402709960938,-2.857067108154297,0.1912749856710434,-0.9517313838005066,-0.24004212021827698,0.9706581830978394,0.1471025049686432,0.19021984934806824,-0.14572739601135254,-0.26938319206237793,0.9519432783126831,0.0
1424370,0,3611,96.52999877929688,-2.096112012863159,7.4799628257751465,60.99304962158203,-0.07330299913883209,-0.09773799777030945,1.3756680488586426,128.35848999023438,124.88694763183594,51.241241455078125,9.7518310546875,-0.73114013671875,-1.7037124633789062,0.1779480129480362,-0.9540896415710449,-0.24092838168144226,0.9727872014045715,0.13363908231258392,0.18927668035030365,-0.14838945865631104,-0.26805350184440613,0.9519073963165283,0.0
1424380,0,3611,96.51300048828125,-1.9238290786743164,7.259822845458984,58.75336456298828,-0.04153800010681152,-0.10995499789714813,1.3732240200042725,129.56878662109375,125.20320892333984,48.64337158203125,10.110031127929688,-0.3944091796875,-2.2397079467773438,0.16458256542682648,-0.9563367366790771,-0.24151945114135742,0.974750816822052,0.12023209035396576,0.18816232681274414,-0.15090815722942352,-0.2663895785808563,0.9519785642623901,0.0
1424390,0,3611,96.49400329589844,-1.4883350133895874,6.86261510848999,57.28417205810547,-0.0024429999757558107,-0.09040799736976624,1.3805550336837769,130.83177185058594,125.73033142089844,47.34056091308594,9.943634033203125,0.081817626953125,-1.4692306518554688,0.1511634737253189,-0.9585063457489014,-0.24169020354747772,0.9765011072158813,0.10680194944143295,0.18718665838241577,-0.1536066234111786,-0.26430660486221313,0.9521275758743286,0.0
1424400,0,3611,96.48300170898438,-1.5601199865341187,6.407978057861328,55.44648361206055,0.024434000253677368,-0.08307699859142303,1.3952150344848633,132.06973266601562,126.1002197265625,45.345062255859375,10.101455688476562,-0.2081451416015625,-1.8377113342285156,0.13759219646453857,-0.9605762958526611,-0.24157898128032684,0.9780658483505249,0.0932559072971344,0.18625390529632568,-0.15638244152069092,-0.26190730929374695,0.9523386359214783,0.0
1424410,0,3611,96.48300170898438,-2.512463092803955,5.3934221267700195,54.87220764160156,0.04153800010681152,-0.09285099804401398,1.3976590633392334,133.18179321289062,125.83270263671875,43.08949279785156,11.782730102539062,-1.44970703125,-0.574310302734375,0.12394621968269348,-0.9625014662742615,-0.24130293726921082,0.9794614315032959,0.07969687879085541,0.18521280586719513,-0.1590365320444107,-0.25930339097976685,0.9526116251945496,0.0
1424420,0,3611,96.45099639892578,-3.306879997253418,4.618146896362305,54.16871643066406,0.02932099997997284,-0.07330299913883209,1.407433032989502,134.47215270996094,126.40606689453125,42.75714111328125,11.411575317382812,0.2864837646484375,-0.7035064697265625,0.11022810637950897,-0.9642179012298584,-0.24110688269138336,0.9806371331214905,0.06600116193294525,0.18437667191028595,-0.1618659794330597,-0.2567618787288666,0.9528234004974365,0.0
1424430,0,3611,96.43900299072266,-2.914457082748413,4.2544379234313965,52.52724075317383,0.04398199915885925,-0.04398199915885925,1.3976590633392334,135.74436950683594,126.86233520507812,41.26182556152344,11.26544189453125,0.05767822265625,-1.6414756774902344,0.09665226936340332,-0.9657678604125977,-0.24072718620300293,0.9815611243247986,0.05241338536143303,0.18382281064987183,-0.1649128645658493,-0.25405532121658325,0.9530264139175415,0.0
1424440,0,3611,96.41400146484375,-2.746959924697876,3.9768710136413574,51.34040069580078,0.04153800010681152,-0.04398199915885925,1.4123200178146362,137.11978149414062,127.77426147460938,41.314788818359375,10.025634765625,1.0039825439453125,-1.1868667602539062,0.08291462063789368,-0.9671347141265869,-0.24036312103271484,0.9823009967803955,0.03866531699895859,0.18327577412128448,-0.16795869171619415,-0.25130513310432434,0.9532236456871033,0.0
1424450,0,3611,96.41300201416016,-2.2157530784606934,2.976670980453491,49.38785934448242,0.05619899928569794,-0.03176400065422058,1.4220930337905884,138.36917114257812,128.0424346923828,39.11164855957031,10.2762451171875,-0.2915191650390625,-1.9525642395019531,0.06909378618001938,-0.9683500528335571,-0.23983992636203766,0.9828272461891174,0.02483893744647503,0.1828496754169464,-0.17110517621040344,-0.2483549267053604,0.9534372091293335,0.0
1424460,0,3611,96.38500213623047,-3.3355939388275146,1.9286149740219116,48.464229583740234,0.03420799970626831,-0.026877999305725098,1.434311032295227,139.75027465820312,128.90423583984375,39.347412109375,9.116836547851562,0.9464111328125,-0.9236640930175781,0.05515093728899956,-0.9693230986595154,-0.2395203709602356,0.9831492304801941,0.010846036486327648,0.18248334527015686,-0.17428751289844513,-0.2455483376979828,0.9535877108573914,0.0
1424470,0,3611,96.38700103759766,-4.546361923217773,1.6654040813446045,47.105106353759766,0.019547000527381897,-0.0024429999757558107,1.4563019275665283,140.97650146484375,128.98878479003906,37.320892333984375,9.78424072265625,-0.621185302734375,-1.3591423034667969,0.04104112461209297,-0.9700709581375122,-0.23932579159736633,0.9832255840301514,-0.003392765996977687,0.18236272037029266,-0.17771679162979126,-0.24279554188251495,0.9536596536636353,0.0
1424480,0,3611,96.36000061035156,-3.0723838806152344,1.7946159839630127,45.645484924316406,-0.007329999934881926,0.007329999934881926,1.4734059572219849,142.325927734375,129.63697814941406,36.582427978515625,9.063079833984375,0.55291748046875,-1.4596481323242188,0.02677980437874794,-0.9705542922019958,-0.23938682675361633,0.9830739498138428,-0.017848215997219086,0.18233828246593475,-0.18124188482761383,-0.24021786451339722,0.9536489844322205,0.0
1424490,0,3611,96.34500122070312,-2.378464937210083,1.7994019985198975,44.066219329833984,-0.017103999853134155,0.048868998885154724,1.4953969717025757,143.67950439453125,130.26681518554688,35.704010009765625,8.362228393554688,0.5308380126953125,-1.5792884826660156,0.012399062514305115,-0.9708080887794495,-0.23953428864479065,0.9826269149780273,-0.03253326937556267,0.18271876871585846,-0.1851777285337448,-0.23763829469680786,0.9535391330718994,0.0
1424500,0,3611,96.34400177001953,-2.5698909759521484,2.660818099975586,40.783267974853516,-0.04153800010681152,0.048868998885154724,1.50272798538208,144.9067840576172,130.25587463378906,31.705322265625,9.077987670898438,-0.7399444580078125,-3.282970428466797,-0.00205449596978724,-0.9707887172698975,-0.2399246096611023,0.9819570183753967,-0.047326765954494476,0.18308691680431366,-0.18909360468387604,-0.23521941900253296,0.9533703327178955,0.0
1424510,0,3611,96.30999755859375,-3.321237087249756,2.3162519931793213,39.5724983215332,-0.06352899968624115,0.07085999846458435,1.5076149702072144,146.3211212158203,131.09829711914062,31.797271728515625,7.7752532958984375,1.0564117431640625,-1.2108116149902344,-0.01650015264749527,-0.9704993367195129,-0.24053601920604706,0.9810217022895813,-0.06219671294093132,0.18365256488323212,-0.19319528341293335,-0.232940673828125,0.9531074166297913,0.0
1424520,0,3611,96.2979965209961,-1.7036889791488647,3.4935200214385986,38.088951110839844,-0.06841599941253662,0.0879639983177185,1.5198320150375366,147.706787109375,131.76475524902344,31.210205078125,6.8787689208984375,0.700714111328125,-1.4835739135742188,-0.03101665899157524,-0.9699771404266357,-0.24120751023292542,0.9798215627670288,-0.07717978209257126,0.18437251448631287,-0.19745352864265442,-0.23062162101268768,0.9527986645698547,0.0
1424530,0,3611,96.28399658203125,-1.5792620182037354,3.8285160064697266,36.73461151123047,-0.06352899968624115,0.1148419976234436,1.5222749710083008,149.08370971679688,132.35206604003906,30.572540283203125,6.162078857421875,0.5533599853515625,-1.3543624877929688,-0.04548191651701927,-0.9692457318305969,-0.241852805018425,0.9783419370651245,-0.0921580046415329,0.18534862995147705,-0.20193712413311005,-0.22818465530872345,0.9524456262588501,0.0
1424540,0,3611,96.26399993896484,-1.8137590885162354,2.976670980453491,36.887752532958984,-0.07330299913883209,0.10995499789714813,1.5344929695129395,150.5077667236328,133.12986755371094,31.837127685546875,5.050628662109375,0.94921875,0.15313339233398438,-0.06006363779306412,-0.9682633280754089,-0.24260492622852325,0.9766300320625305,-0.10725019127130508,0.18625618517398834,-0.20636454224586487,-0.2257479578256607,0.9520772099494934,0.0
1424550,0,3612,96.25499725341797,-1.7036889791488647,2.895314931869507,34.63371276855469,-0.048868998885154724,0.10262499749660492,1.544266939163208,151.87379455566406,133.60623168945312,30.064834594726562,4.568878173828125,0.3176727294921875,-2.2540435791015625,-0.07474076747894287,-0.9671093225479126,-0.24312956631183624,0.9746885299682617,-0.12236481159925461,0.18710754811763763,-0.210704043507576,-0.2229909598827362,0.951776385307312,0.0
1424560,0,3611,96.2300033569336,-0.39242199063301086,2.9192428588867188,31.08755111694336,-0.03176400065422058,0.10506799817085266,1.5687010288238525,153.3334197998047,134.48880004882812,28.066696166992188,3.020904541015625,1.170135498046875,-3.546161651611328,-0.08962832391262054,-0.9657490849494934,-0.24350403249263763,0.9724758267402649,-0.1376536786556244,0.18799574673175812,-0.2150760293006897,-0.21995197236537933,0.9515056014060974,0.0
1424570,0,3611,96.2249984741211,-1.1437690258026123,2.8378870487213135,29.125436782836914,-0.04153800010681152,0.10018099844455719,1.5858049392700195,154.6949920654297,134.84226989746094,26.37054443359375,2.7549285888671875,0.146392822265625,-1.9621639251708984,-0.1046690121293068,-0.9641141295433044,-0.24398186802864075,0.9700062870979309,-0.1530907154083252,0.18881534039974213,-0.21939097344875336,-0.2169007658958435,0.9512208700180054,0.0
1424580,0,3611,96.19100189208984,0.5982049703598022,2.7421741485595703,27.02932357788086,-0.021990999579429626,0.1148419976234436,1.620013952255249,156.23297119140625,136.0034942626953,26.501251220703125,0.528106689453125,1.8047027587890625,-2.096149444580078,-0.11997537314891815,-0.9622483253479004,-0.24430090188980103,0.9672069549560547,-0.16878080368041992,0.1897997111082077,-0.22386783361434937,-0.2135181725025177,0.9509429931640625,0.0
1424590,0,3611,96.18099975585938,0.6795610189437866,1.8281159400939941,26.244478225708008,-0.03909499943256378,0.09040799736976624,1.6493350267410278,157.71371459960938,136.83770751953125,27.102691650390625,-0.8582000732421875,1.14453125,-0.7848796844482422,-0.1355900913476944,-0.9600532650947571,-0.2447689324617386,0.9641457200050354,-0.18473942577838898,0.1905115246772766,-0.22811976075172424,-0.21016137301921844,0.9506801962852478,0.0
1424600,0,3611,96.1709976196289,1.3974080085754395,2.4215359687805176,25.04328155517578,-0.014659999869763851,0.09529399871826172,1.6346750259399414,159.1402587890625,137.37957763671875,26.600555419921875,-1.5572662353515625,0.5446014404296875,-1.2012100219726562,-0.15101444721221924,-0.9576836824417114,-0.24502132833003998,0.9608421325683594,-0.20045822858810425,0.19130884110927582,-0.23232996463775635,-0.20653635263442993,0.9504550695419312,0.0
1424610,0,3611,96.15599822998047,0.96670001745224,1.9046859741210938,23.282163619995117,-0.026877999305725098,0.07574699819087982,1.6249010562896729,160.56195068359375,137.8675994873047,25.449478149414062,-2.16729736328125,0.446441650390625,-1.7611255645751953,-0.16635218262672424,-0.9550487995147705,-0.24537236988544464,0.9573405981063843,-0.21605132520198822,0.1918882131576538,-0.23627570271492004,-0.20298384130001068,0.9502477049827576,0.0
1424620,0,3611,96.13700103759766,0.8327019810676575,2.5459630489349365,22.851455688476562,0.0024429999757558107,0.06841599941253662,1.617569923400879,162.0159149169922,138.4750518798828,25.875747680664062,-3.0242767333984375,0.709716796875,-0.43072509765625,-0.18159383535385132,-0.9522507786750793,-0.24544042348861694,0.9536178708076477,-0.2314596176147461,0.19245676696300507,-0.2400767058134079,-0.199107363820076,0.9501151442527771,0.0
1424630,0,3611,96.0999984741211,0.07656999677419662,2.9383859634399414,22.41596221923828,0.007329999934881926,0.06352899968624115,1.6053529977798462,163.66690063476562,139.99696350097656,28.454483032226562,-6.03851318359375,2.5399017333984375,-0.43550872802734375,-0.19668444991111755,-0.9492431879043579,-0.24546177685260773,0.9496864080429077,-0.24668045341968536,0.1929887980222702,-0.24374397099018097,-0.19515375792980194,0.9500017166137695,0.0
1424640,0,3611,96.0979995727539,1.2586239576339722,2.4071788787841797,22.368104934692383,0.019547000527381897,0.06352899968624115,1.5931360721588135,165.17794799804688,140.80430603027344,29.647872924804688,-7.279754638671875,1.0512237548828125,-0.04786491394042969,-0.21160966157913208,-0.946050226688385,-0.24537567794322968,0.945543646812439,-0.2616972327232361,0.1935509890317917,-0.24732312560081482,-0.19105610251426697,0.9499095678329468,0.0
1424650,0,3611,96.07599639892578,0.7704880237579346,1.6893320083618164,22.21017837524414,0.0024429999757558107,0.03665100038051605,1.5833619832992554,166.7427520751953,141.84104919433594,31.251800537109375,-9.0416259765625,1.4885101318359375,-0.15793991088867188,-0.22645577788352966,-0.9426002502441406,-0.24540092051029205,0.941241443157196,-0.27658775448799133,0.19381438195705414,-0.2505643963813782,-0.18709108233451843,0.9498493075370789,0.0
1424660,0,3611,96.06700134277344,0.43549299240112305,1.7754740715026855,22.980667114257812,0.012217000126838684,0.046424999833106995,1.558927059173584,168.23715209960938,142.5084686279297,32.82670593261719,-9.846038818359375,0.713653564453125,0.7704925537109375,-0.24099233746528625,-0.9389992356300354,-0.24536113440990448,0.9367569088935852,-0.2911604344844818,0.1941966563463211,-0.2537899911403656,-0.18304377794265747,0.9497815370559692,0.0
1424670,0,3611,96.04499816894531,-0.16749699413776398,2.1822540760040283,22.21017837524414,0.0048859999515116215,0.06352899968624115,1.561371088027954,169.78579711914062,143.41798400878906,33.470428466796875,-11.260223388671875,1.16876220703125,-0.7704887390136719,-0.25545188784599304,-0.9351488351821899,-0.2454383224248886,0.9320053458213806,-0.30569836497306824,0.19471712410449982,-0.25711962580680847,-0.17900891602039337,0.9496550559997559,0.0
1424680,0,3611,96.02799987792969,0.7417749762535095,1.316051959991455,22.15753746032715,-0.0048859999515116215,0.007329999934881926,1.5540399551391602,171.33877563476562,144.31112670898438,34.74371337890625,-12.586181640625,1.122894287109375,-0.05266761779785156,-0.269919216632843,-0.931068480014801,-0.24546708166599274,0.9271606206893921,-0.3201124370098114,0.19468286633491516,-0.259840190410614,-0.17503871023654938,0.9496546387672424,0.0
1424690,0,3611,96.01100158691406,0.6747750043869019,1.004984974861145,22.047466278076172,-0.024434000253677368,0.007329999934881926,1.561371088027954,172.8955078125,145.1919708251953,35.90296936035156,-13.855514526367188,1.072540283203125,-0.11006546020507812,-0.2843891382217407,-0.9266955256462097,-0.2456769198179245,0.9220682382583618,-0.33455535769462585,0.1945842057466507,-0.26251286268234253,-0.1711931973695755,0.9496206045150757,0.0
1424700,0,3611,96.00599670410156,0.41635099053382874,1.6031910181045532,22.698314666748047,-0.024434000253677368,-0.0024429999757558107,1.561371088027954,174.34417724609375,145.5269012451172,36.465728759765625,-13.767440795898438,-0.0484466552734375,0.6508598327636719,-0.29881322383880615,-0.9220975637435913,-0.2458568513393402,0.9167706370353699,-0.3489173352718353,0.19439244270324707,-0.2650325298309326,-0.16730725765228271,0.9496132731437683,0.012013928964734077
1424710,0,3611,95.9749984741211,-0.2249249964952469,1.2873380184173584,21.200408935546875,-0.06597299873828888,0.017103999853134155,1.558927059173584,175.9322967529297,146.51626586914062,36.51966857910156,-15.319229125976562,1.256134033203125,-1.4978790283203125,-0.31309273838996887,-0.9171813130378723,-0.24647574126720428,0.911220371723175,-0.3632532060146332,0.19422875344753265,-0.26767611503601074,-0.1637820601463318,0.9494863152503967,0.09444473683834076
1424720,0,3611,95.95600128173828,-1.0528409481048584,1.5314059257507324,21.387048721313477,-0.048868998885154724,0.021990999579429626,1.5687010288238525,177.53988647460938,147.55178833007812,38.28599548339844,-16.898941040039062,1.347869873046875,0.18660926818847656,-0.3273714482784271,-0.9120535850524902,-0.2469516396522522,0.9054017066955566,-0.377556174993515,0.19416309893131256,-0.27032530307769775,-0.16002695262432098,0.9493760466575623,0.18072126805782318
1424730,0,3611,95.94400024414062,0.5982049703598022,0.894914984703064,20.88455581665039,-0.04153800010681152,0.019547000527381897,1.5735880136489868,179.10044860839844,148.33096313476562,38.74668884277344,-17.862106323242188,0.7969207763671875,-0.5024986267089844,-0.3416186273097992,-0.906704306602478,-0.24735194444656372,0.8993456959724426,-0.3917961120605469,0.19409605860710144,-0.2728992700576782,-0.15614807605743408,0.9492855668067932,0.24563971161842346
1424740,0,3611,95.93199920654297,0.17706799507141113,0.8231300115585327,20.573488235473633,-0.053755998611450195,0.00977300014346838,1.578474998474121,180.6165313720703,148.86544799804688,38.798828125,-18.225341796875,0.295623779296875,-0.3110942840576172,-0.3558480739593506,-0.9010840654373169,-0.24782778322696686,0.8930659294128418,-0.40600669384002686,0.19388632476329803,-0.2753276228904724,-0.15233246982097626,0.9492043256759644,0.2901713252067566
1424750,0,3612,95.91600036621094,-0.7944170236587524,0.8087739944458008,19.793428421020508,-0.06352899968624115,0.021990999579429626,1.5882489681243896,182.12767028808594,149.35140991210938,38.28813171386719,-18.494705200195312,0.197021484375,-0.7800579071044922,-0.3700442910194397,-0.8951801061630249,-0.2484327256679535,0.8864983916282654,-0.4202219545841217,0.1937374621629715,-0.27782681584358215,-0.14854377508163452,0.9490765929222107,0.3306601941585541
1424760,0,3611,95.90799713134766,-0.09092699736356735,1.866400957107544,19.45364761352539,-0.09285099804401398,0.024434000253677368,1.578474998474121,183.55972290039062,149.43209838867188,37.24835205078125,-17.794708251953125,-0.6076507568359375,-0.3397789001464844,-0.38405153155326843,-0.8890162110328674,-0.24930641055107117,0.8797438144683838,-0.43430203199386597,0.19347524642944336,-0.28027692437171936,-0.14502131938934326,0.9489009380340576,0.33738288283348083
1424770,0,3611,95.88200378417969,0.08135499805212021,1.3256230354309082,19.602001190185547,-0.11239899694919586,0.04153800010681152,1.5833619832992554,185.08424377441406,149.93963623046875,37.709716796875,-18.107742309570312,0.271575927734375,0.14835739135742188,-0.3979598581790924,-0.8825636506080627,-0.2504163980484009,0.8727132081985474,-0.44835400581359863,0.19326269626617432,-0.28284186124801636,-0.14163090288639069,0.9486519694328308,0.3796693682670593
1424780,0,3611,95.9010009765625,2.6943180561065674,3.4743781089782715,19.721643447875977,-0.09285099804401398,-0.019547000527381897,1.5858049392700195,186.278076171875,148.850830078125,34.34968566894531,-14.6280517578125,-2.9475860595703125,0.11966896057128906,-0.41193926334381104,-0.875929057598114,-0.25110429525375366,0.8655685186386108,-0.4622770845890045,0.19259041547775269,-0.28477534651756287,-0.13801242411136627,0.9486068487167358,0.28895342350006104
1424790,0,3612,95.83899688720703,0.9762709736824036,2.9192428588867188,17.90788459777832,-0.09529399871826172,-0.024434000253677368,1.5491529703140259,187.91256713867188,149.88214111328125,34.25236511230469,-16.344467163085938,1.383056640625,-1.8137493133544922,-0.4255058467388153,-0.8692233562469482,-0.2517828941345215,0.8583881258964539,-0.47577500343322754,0.1918540894985199,-0.28655609488487244,-0.134492427110672,0.9485762119293213,0.37487906217575073
1424800,0,3611,95.8270034790039,1.1437690258026123,2.502892017364502,16.52004623413086,-0.051311999559402466,-0.021990999579429626,1.524718999862671,189.4971160888672,150.62518310546875,33.879791259765625,-17.359725952148438,0.8053436279296875,-1.3878517150878906,-0.43875131011009216,-0.8625264763832092,-0.2520802915096283,0.851115345954895,-0.48886752128601074,0.19134072959423065,-0.28827035427093506,-0.13059844076633453,0.9486008882522583,0.43678703904151917
1424810,0,3611,95.81500244140625,1.698904037475586,2.9383859634399414,14.318650245666504,-0.06597299873828888,-0.021990999579429626,1.5296059846878052,191.03433227539062,151.1034698486328,32.11381530761719,-17.795135498046875,0.280487060546875,-2.2014150619506836,-0.4519350826740265,-0.8555697202682495,-0.25249603390693665,0.8436194658279419,-0.5019169449806213,0.19075050950050354,-0.2899324595928192,-0.12680374085903168,0.9486091732978821,0.4766364097595215
1424820,0,3611,95.7959976196289,0.9332000017166138,1.976470947265625,14.371292114257812,-0.06597299873828888,-0.04398199915885925,1.524718999862671,192.5916290283203,151.6375274658203,32.66851806640625,-18.297210693359375,0.428131103515625,0.0526123046875,-0.4650254249572754,-0.8484348058700562,-0.2528022229671478,0.8359922170639038,-0.5148094892501831,0.18996958434581757,-0.29132184386253357,-0.12299998849630356,0.9486843347549438,0.5211324095726013
1424830,0,3611,95.76599884033203,0.7130609750747681,1.9716849327087402,12.849456787109375,-0.051311999559402466,-0.017103999853134155,1.5051710605621338,194.26956176757812,152.72674560546875,33.0262451171875,-20.1767578125,1.5332489013671875,-1.5218505859375,-0.4777737557888031,-0.8412325382232666,-0.253099650144577,0.8282217979431152,-0.5273941159248352,0.1894846111536026,-0.29288390278816223,-0.11909185349941254,0.9487019777297974,0.611882746219635
1424840,0,3611,95.75700378417969,-0.11964099854230881,2.967100143432617,12.562317848205566,-0.03420799970626831,-0.03420799970626831,1.4880670309066772,195.86573791503906,153.37765502929688,33.51264953613281,-20.950347900390625,0.6447601318359375,-0.2871694564819336,-0.4903135895729065,-0.8339664340019226,-0.2531639635562897,0.82038813829422,-0.5396880507469177,0.18894575536251068,-0.2942040264606476,-0.1150500550866127,0.9487922191619873,0.6661145091056824
1424850,0,3611,95.73999786376953,-0.24885299801826477,2.5794620513916016,11.418548583984375,-0.04153800010681152,-0.04153800010681152,1.5051710605621338,197.458984375,153.98828125,33.07623291015625,-21.657684326171875,0.5539398193359375,-1.1437530517578125,-0.5029040575027466,-0.8264102935791016,-0.2532447874546051,0.8122919797897339,-0.5520169734954834,0.18830646574497223,-0.29541391134262085,-0.1110086441040039,0.9488977193832397,0.7169899940490723
1424860,0,3611,95.72899627685547,-0.7704880237579346,2.6751749515533447,9.399006843566895,-0.03176400065422058,-0.04398199915885925,1.5125019550323486,198.99349975585938,154.28553771972656,31.073455810546875,-21.674423217773438,-0.0673828125,-2.0195417404174805,-0.5154460668563843,-0.8186529278755188,-0.2532232105731964,0.8039748072624207,-0.5642634034156799,0.18770122528076172,-0.29654690623283386,-0.1068352460861206,0.9490233659744263,0.7417564988136292
1424870,0,3611,95.70500183105469,-0.3206380009651184,1.718045949935913,8.250452041625977,-0.04153800010681152,-0.024434000253677368,1.5222749710083008,200.59315490722656,154.85964965820312,30.603729248046875,-22.353286743164062,0.5295867919921875,-1.148580551147461,-0.5278992652893066,-0.8106313943862915,-0.2533741295337677,0.7953804135322571,-0.5764786601066589,0.18719735741615295,-0.29781296849250793,-0.10270749777555466,0.949082612991333,0.7895897030830383
1424880,0,3611,95.69000244140625,-0.9044860005378723,2.6033899784088135,7.197609901428223,-0.02932099997997284,-0.012217000126838684,1.5296059846878052,202.17019653320312,155.29397583007812,29.905120849609375,-22.707504272460938,0.25799560546875,-1.0528326034545898,-0.540257453918457,-0.8024132251739502,-0.25348421931266785,0.7865356206893921,-0.5885964035987854,0.1868593543767929,-0.29913848638534546,-0.09842225164175034,0.9491198062896729,0.8257763981819153
1424890,0,3611,95.6709976196289,-0.46899300813674927,3.3643078804016113,5.737987995147705,-0.014659999869763851,0.017103999853134155,1.5491529703140259,203.7628173828125,155.77517700195312,28.9466552734375,-23.208633422851562,0.3662261962890625,-1.4596285820007324,-0.5525699853897095,-0.7939372658729553,-0.25363245606422424,0.777334988117218,-0.6007020473480225,0.186836376786232,-0.3006940484046936,-0.09391726553440094,0.9490847587585449,0.8658686280250549
1424900,0,3611,95.66200256347656,-2.24446702003479,3.5796620845794678,4.694716930389404,0.017103999853134155,0.021990999579429626,1.5540399551391602,205.277099609375,155.85037231445312,27.445281982421875,-22.750534057617188,-0.430816650390625,-1.0433049201965332,-0.5647767186164856,-0.7853251099586487,-0.2535569369792938,0.7679098844528198,-0.6126421689987183,0.18704155087471008,-0.30222824215888977,-0.08907219767570496,0.9490645527839661,0.8721336722373962
1424910,0,3611,95.63600158691406,-1.9477570056915283,2.1296119689941406,4.938785076141357,-0.007329999934881926,0.026877999305725098,1.5540399551391602,206.87518310546875,156.30697631835938,28.109375,-23.17059326171875,0.36627197265625,0.24403715133666992,-0.5768356323242188,-0.7764630317687988,-0.25370317697525024,0.7582913637161255,-0.6244804263114929,0.18713387846946716,-0.30373531579971313,-0.08443546295166016,0.9490072727203369,0.9101765155792236
1424920,0,3611,95.62000274658203,-1.6510469913482666,2.2396810054779053,3.7375879287719727,0.0024429999757558107,0.04153800010681152,1.5638139247894287,208.4591064453125,156.68075561523438,27.18505859375,-23.44744873046875,0.1863861083984375,-1.2011938095092773,-0.5887937545776367,-0.7673826217651367,-0.2538609206676483,0.7484009861946106,-0.636222779750824,0.187395840883255,-0.3053165376186371,-0.07965227961540222,0.9489133954048157,0.9413186311721802
1424930,0,3611,95.62200164794922,-1.990828037261963,3.809372901916504,3.1298110485076904,-0.0024429999757558107,0.08307699859142303,1.5662579536437988,209.86256408691406,156.16729736328125,24.7451171875,-21.61529541015625,-1.5790863037109375,-0.6077988147735596,-0.6005215644836426,-0.7580905556678772,-0.2543070316314697,0.7382346987724304,-0.6478360295295715,0.18793243169784546,-0.3072192370891571,-0.07488081604242325,0.948687732219696,0.8985388875007629
1424940,0,3611,95.59200286865234,-1.6414759159088135,3.8285160064697266,2.9575281143188477,0.06841599941253662,0.06108599901199341,1.561371088027954,211.39320373535156,156.26083374023438,24.21624755859375,-21.258712768554688,-0.30950927734375,-0.17229366302490234,-0.612123429775238,-0.7488260269165039,-0.25409436225891113,0.7279624342918396,-0.6591204404830933,0.18876323103904724,-0.30882975459098816,-0.06942475587129593,0.9485797882080078,0.9063320159912109
